 Field[T] Tsmpl[K] Tcntr[K] Signal Mirror[MM] RefSignal
 0.00000    4.70     2.98   2.41421  2.8163   1.78113
 0.05000    4.70     2.98   2.41548  2.8163   1.78062
 0.10000    4.70     2.98   2.41645  2.8164   1.77833
 0.15000    4.70     2.98   2.41740  2.8166   1.78200
 0.20000    4.69     2.98   2.41820  2.8166   1.78119
 0.25000    4.69     2.98   2.41853  2.8165   1.78299
 0.30000    4.69     2.97   2.41900  2.8164   1.78378
 0.35000    4.68     2.98   2.42049  2.8164   1.78386
 0.40000    4.67     2.99   2.41907  2.8161   1.78292
 0.45000    4.67     2.99   2.41924  2.8163   1.78308
 0.50000    4.67     2.98   2.41957  2.8163   1.78423
 0.55000    4.66     2.99   2.42049  2.8162   1.78457
 0.60000    4.66     2.99   2.42079  2.8163   1.78679
 0.65000    4.66     2.98   2.42154  2.8164   1.78717
 0.70000    4.66     2.98   2.42222  2.8163   1.78730
 0.75000    4.66     2.99   2.42215  2.8163   1.78669
 0.80000    4.66     2.98   2.42202  2.8161   1.78725
 0.85000    4.65     2.97   2.42196  2.8161   1.78832
 0.90000    4.64     2.97   2.42174  2.8160   1.78838
 0.95000    4.63     2.97   2.42111  2.8157   1.78726
 1.00000    4.63     2.97   2.42178  2.8157   1.78937
 1.05000    4.62     2.96   2.42173  2.8156   1.78769
 1.10000    4.61     2.96   2.42454  2.8156   1.78993
 1.15000    4.61     2.97   2.42691  2.8152   1.78918
 1.20000    4.61     2.96   2.43030  2.8152   1.79070
 1.25000    4.60     2.97   2.43201  2.8151   1.79131
 1.30000    4.61     2.97   2.43393  2.8150   1.79234
 1.35000    4.61     2.96   2.43685  2.8154   1.79234
 1.40000    4.61     2.97   2.43741  2.8154   1.79295
 1.45000    4.62     2.97   2.43846  2.8154   1.79415
 1.50000    4.63     2.98   2.43445  2.8154   1.79483
 1.55000    4.64     2.96   2.44185  2.8152   1.79562
 1.60000    4.64     2.97   2.44510  2.8149   1.79461
 1.65000    4.65     2.97   2.44679  2.8150   1.79531
 1.70000    4.65     2.98   2.44906  2.8151   1.79754
 1.75000    4.66     2.98   2.45026  2.8151   1.79660
 1.80000    4.67     2.97   2.45122  2.8153   1.79691
 1.85000    4.68     2.98   2.45253  2.8151   1.79632
 1.90000    4.68     2.97   2.45246  2.8151   1.79939
 1.95000    4.69     2.98   2.45506  2.8148   1.80074
 2.00000    4.69     2.98   2.45711  2.8149   1.80026
 2.05000    4.70     2.99   2.45901  2.8150   1.80108
 2.10000    4.70     2.99   2.46026  2.8149   1.80044
 2.15000    4.71     2.98   2.46114  2.8149   1.80023
 2.20000    4.71     2.99   2.46486  2.8148   1.80120
 2.25000    4.71     2.99   2.46544  2.8148   1.80100
 2.30000    4.71     2.99   2.46743  2.8149   1.80118
 2.35000    4.71     3.00   2.46865  2.8147   1.80156
 2.40000    4.72     2.99   2.46985  2.8148   1.80174
 2.45000    4.72     3.00   2.46966  2.8149   1.80263
 2.50000    4.73     2.99   2.47196  2.8150   1.80409
 2.55000    4.73     3.00   2.47308  2.8148   1.80305
 2.60000    4.74     3.00   2.47495  2.8153   1.80429
 2.65000    4.75     3.00   2.47644  2.8153   1.80373
 2.70000    4.75     3.01   2.47663  2.8152   1.80652
 2.75000    4.75     3.00   2.47827  2.8154   1.80487
 2.80000    4.76     3.00   2.47946  2.8155   1.80712
 2.85000    4.76     3.00   2.48125  2.8152   1.80654
 2.90000    4.76     3.00   2.48252  2.8152   1.80731
 2.95000    4.76     3.01   2.48303  2.8152   1.80885
 3.00000    4.77     3.01   2.48572  2.8151   1.80860
 3.05000    4.77     3.02   2.48575  2.8152   1.80765
 3.10000    4.78     3.01   2.48779  2.8155   1.80809
 3.15000    4.78     3.01   2.48777  2.8156   1.80959
 3.20000    4.79     3.01   2.48984  2.8153   1.80793
 3.25000    4.79     3.02   2.48987  2.8153   1.81075
 3.30000    4.81     3.02   2.49296  2.8152   1.81004
 3.35000    4.82     3.03   2.49396  2.8153   1.81036
 3.40000    4.82     3.02   2.49490  2.8153   1.81247
 3.45000    4.83     3.04   2.49619  2.8153   1.81090
 3.50000    4.84     3.03   2.49792  2.8154   1.81346
 3.55000    4.84     3.03   2.49827  2.8155   1.81306
 3.60000    4.85     3.03   2.49873  2.8154   1.81300
 3.65000    4.85     3.03   2.50027  2.8154   1.81303
 3.70000    4.86     3.04   2.50187  2.8154   1.81488
 3.75000    4.86     3.03   2.50282  2.8155   1.81361
 3.80000    4.87     3.04   2.50355  2.8156   1.81387
 3.85000    4.88     3.04   2.50410  2.8158   1.81530
 3.90000    4.88     3.04   2.50727  2.8157   1.81629
 3.95000    4.89     3.04   2.50752  2.8156   1.81562
 4.00000    4.90     3.03   2.50902  2.8156   1.81663
