 Field[T] Tsmpl[K] Tcntr[K] Signal Mirror[MM] RefSignal
 0.00000    4.74     2.99   0.87088  2.7987   0.64958
 0.05000    4.74     3.00   0.86903  2.7998   0.65300
 0.10000    4.73     3.02   0.87178  2.7990   0.65306
 0.15000    4.72     3.00   0.87234  2.7991   0.65118
 0.20000    4.72     2.99   0.87322  2.7993   0.65234
 0.25000    4.71     3.00   0.87364  2.7993   0.65371
 0.30000    4.70     2.99   0.87416  2.7992   0.65507
 0.35000    4.69     3.02   0.87484  2.7991   0.65631
 0.40000    4.68     2.99   0.87516  2.7991   0.65560
 0.45000    4.67     3.01   0.87571  2.7993   0.65700
 0.50000    4.66     3.00   0.87618  2.7994   0.65724
 0.55000    4.66     2.99   0.87623  2.7994   0.65714
 0.60000    4.64     3.02   0.87697  2.7994   0.65654
 0.65000    4.64     2.99   0.87723  2.7994   0.65598
 0.70000    4.63     3.00   0.87777  2.7995   0.65785
 0.75000    4.62     3.02   0.87814  2.7996   0.65944
 0.80000    4.62     3.00   0.87802  2.7997   0.65996
 0.85000    4.62     3.00   0.87836  2.7996   0.66007
 0.90000    4.61     2.99   0.87875  2.7996   0.66063
 0.95000    4.61     3.01   0.87888  2.7998   0.66015
 1.00000    4.62     2.99   0.87897  2.7999   0.66213
 1.05000    4.61     2.99   0.87924  2.8000   0.66241
 1.10000    4.61     2.99   0.87889  2.8000   0.66260
 1.15000    4.62     3.02   0.87948  2.8001   0.66392
 1.20000    4.62     3.00   0.87920  2.8002   0.66316
 1.25000    4.62     2.99   0.87913  2.8000   0.66054
 1.30000    4.63     3.00   0.87884  2.8001   0.66131
 1.35000    4.64     3.00   0.87879  2.8003   0.66458
 1.40000    4.65     3.00   0.87858  2.8005   0.66260
 1.45000    4.65     3.00   0.87805  2.8006   0.66229
 1.50000    4.66     2.99   0.87758  2.8003   0.66259
 1.55000    4.68     3.01   0.87693  2.8003   0.66368
 1.60000    4.68     3.00   0.87657  2.8001   0.66422
 1.65000    4.70     2.99   0.87579  2.8003   0.66215
 1.70000    4.71     3.01   0.87527  2.7999   0.66355
 1.75000    4.72     3.00   0.87625  2.8000   0.66531
 1.80000    4.73     3.00   0.87662  2.7994   0.66409
 1.85000    4.74     3.00   0.87783  2.7992   0.66631
 1.90000    4.75     3.00   0.87885  2.7992   0.66548
 1.95000    4.76     3.00   0.87984  2.7990   0.66540
 2.00000    4.77     3.00   0.88062  2.7997   0.66662
 2.05000    4.78     3.00   0.88054  2.7996   0.66672
 2.10000    4.78     3.00   0.88139  2.7998   0.66585
 2.15000    4.79     3.02   0.88122  2.7997   0.66687
 2.20000    4.79     3.00   0.88221  2.7998   0.66769
 2.25000    4.79     3.00   0.88243  2.7994   0.66642
 2.30000    4.78     3.01   0.88273  2.7997   0.66719
 2.35000    4.78     3.01   0.88318  2.7997   0.66774
 2.40000    4.77     3.00   0.88336  2.7999   0.66690
 2.45000    4.75     3.00   0.88394  2.8001   0.66656
 2.50000    4.74     3.00   0.88405  2.7998   0.66707
 2.55000    4.72     3.00   0.88450  2.7998   0.66881
 2.60000    4.72     3.01   0.88452  2.8000   0.66630
 2.65000    4.71     3.00   0.88506  2.8001   0.66915
 2.70000    4.71     3.01   0.88562  2.7999   0.66768
 2.75000    4.72     3.01   0.88547  2.8000   0.66886
 2.80000    4.74     3.00   0.88608  2.8000   0.66995
 2.85000    4.74     3.01   0.88667  2.7998   0.66945
 2.90000    4.75     3.01   0.88678  2.8003   0.66972
 2.95000    4.77     3.01   0.88719  2.8003   0.67051
 3.00000    4.77     3.01   0.88777  2.8001   0.66955
 3.05000    4.78     3.01   0.88757  2.8000   0.66992
 3.10000    4.79     3.02   0.88825  2.7997   0.66851
 3.15000    4.79     3.01   0.88862  2.7999   0.66953
 3.20000    4.79     3.01   0.88853  2.7999   0.66907
 3.25000    4.79     3.01   0.88927  2.7998   0.67003
 3.30000    4.80     3.02   0.88935  2.7998   0.66945
 3.35000    4.81     3.01   0.88940  2.7998   0.67008
 3.40000    4.80     3.01   0.89006  2.7998   0.67060
 3.45000    4.81     3.00   0.88998  2.8001   0.67042
 3.50000    4.82     3.02   0.89079  2.7998   0.67012
 3.55000    4.82     3.01   0.89071  2.7999   0.67078
 3.60000    4.82     3.02   0.89105  2.8001   0.66999
 3.65000    4.82     3.01   0.89132  2.8001   0.67107
 3.70000    4.83     3.01   0.89179  2.8001   0.67091
 3.75000    4.83     3.01   0.89220  2.8002   0.67087
 3.80000    4.83     3.01   0.89236  2.8005   0.67197
 3.85000    4.83     3.03   0.89296  2.8003   0.67279
 3.90000    4.83     3.01   0.89288  2.8003   0.67136
 3.95000    4.83     3.01   0.89331  2.8003   0.67066
 4.00000    4.83     3.01   0.89345  2.8004   0.67181
