 Field[T] Tsmpl[K] Tcntr[K] Signal   Mirror[MM]
 0.00000    1.84     1.84   0.63241  -9.4659
 0.05000    1.84     1.84   0.62953  -9.4656
 0.10000    1.84     1.84   0.63142  -9.4715
 0.15000    1.84     1.84   0.63701  -9.4695
 0.20000    1.84     1.84   0.64040  -9.4734
 0.25000    1.84     1.84   0.64669  -9.4732
 0.30000    1.84     1.84   0.65168  -9.4726
 0.35000    1.84     1.84   0.65417  -9.4720
 0.40000    1.84     1.84   0.65824  -9.4727
 0.45000    1.84     1.84   0.66092  -9.4720
 0.50000    1.84     1.84   0.66425  -9.4710
 0.55000    1.84     1.84   0.66546  -9.4699
 0.60000    1.84     1.84   0.66656  -9.4698
 0.65000    1.84     1.84   0.66816  -9.4683
 0.70000    1.84     1.84   0.67100  -9.4670
 0.75000    1.84     1.84   0.67324  -9.4657
 0.80000    1.84     1.84   0.67280  -9.4640
 0.85000    1.84     1.84   0.67274  -9.4622
 0.90000    1.84     1.84   0.67267  -9.4612
 0.95000    1.84     1.84   0.67280  -9.4612
 1.00000    1.84     1.84   0.67188  -9.4608
 1.05000    1.84     1.84   0.67038  -9.4603
 1.10000    1.84     1.84   0.67038  -9.4592
 1.15000    1.84     1.84   0.67155  -9.4593
 1.20000    1.84     1.84   0.67019  -9.4587
 1.25000    1.84     1.84   0.66950  -9.4592
 1.30000    1.84     1.84   0.67107  -9.4584
 1.35000    1.84     1.84   0.67155  -9.4585
 1.40000    1.84     1.84   0.66715  -9.4575
 1.45000    1.84     1.84   0.66891  -9.4574
 1.50000    1.84     1.84   0.66972  -9.4568
 1.55000    1.84     1.84   0.66878  -9.4566
 1.60000    1.84     1.84   0.66715  -9.4569
 1.65000    1.84     1.84   0.66715  -9.4568
 1.70000    1.84     1.84   0.66761  -9.4563
 1.75000    1.84     1.84   0.66579  -9.4558
 1.80000    1.84     1.84   0.66598  -9.4562
 1.85000    1.84     1.84   0.66649  -9.4556
 1.90000    1.84     1.84   0.66444  -9.4551
 1.95000    1.84     1.84   0.66466  -9.4544
 2.00000    1.84     1.84   0.66473  -9.4537
 2.05000    1.84     1.84   0.65857  -9.4507
 2.10000    1.84     1.84   0.65756  -9.4510
 2.15000    1.84     1.84   0.66532  -9.4537
 2.20000    1.84     1.84   0.66242  -9.4531
 2.25000    1.84     1.84   0.66451  -9.4543
 2.30000    1.84     1.84   0.66209  -9.4545
 2.35000    1.84     1.84   0.66053  -9.4546
 2.40000    1.84     1.84   0.66059  -9.4529
 2.45000    1.84     1.84   0.66059  -9.4526
 2.50000    1.84     1.84   0.65857  -9.4523
 2.55000    1.84     1.84   0.66033  -9.4520
 2.60000    1.84     1.84   0.65681  -9.4544
 2.65000    1.84     1.84   0.66079  -9.4526
 2.70000    1.84     1.84   0.65967  -9.4530
 2.75000    1.84     1.84   0.65606  -9.4546
 2.80000    1.84     1.84   0.65958  -9.4542
 2.85000    1.84     1.84   0.65756  -9.4537
 2.90000    1.84     1.84   0.65967  -9.4534
 2.95000    1.84     1.84   0.66033  -9.4533
 3.00000    1.84     1.84   0.65936  -9.4532
 3.05000    1.84     1.84   0.65883  -9.4524
 3.10000    1.84     1.84   0.66119  -9.4481
 3.15000    1.84     1.84   0.66202  -9.4494
 3.20000    1.84     1.84   0.65622  -9.4513
 3.25000    1.84     1.84   0.65740  -9.4508
 3.30000    1.84     1.84   0.65580  -9.4523
 3.35000    1.84     1.84   0.65032  -9.4523
 3.40000    1.84     1.84   0.65897  -9.4518
 3.45000    1.84     1.84   0.65573  -9.4524
 3.50000    1.84     1.84   0.65641  -9.4528
 3.55000    1.84     1.84   0.65437  -9.4528
 3.60000    1.84     1.84   0.65641  -9.4526
 3.65000    1.84     1.84   0.65424  -9.4522
 3.70000    1.84     1.84   0.65371  -9.4510
 3.75000    1.84     1.84   0.65228  -9.4522
 3.80000    1.84     1.84   0.65364  -9.4526
 3.85000    1.84     1.84   0.65331  -9.4523
 3.90000    1.84     1.84   0.65228  -9.4516
 3.95000    1.84     1.84   0.65351  -9.4513
 4.00000    1.84     1.84   0.65234  -9.4514
 4.05000    1.84     1.84   0.65254  -9.4513
 4.10000    1.84     1.84   0.64823  -9.4505
 4.15000    1.84     1.84   0.65032  -9.4519
 4.20000    1.84     1.84   0.64959  -9.4524
 4.25000    1.84     1.84   0.64761  -9.4518
 4.30000    1.84     1.84   0.64823  -9.4516
 4.35000    1.84     1.84   0.64803  -9.4516
 4.40000    1.84     1.84   0.64742  -9.4519
 4.45000    1.84     1.84   0.64865  -9.4522
 4.50000    1.84     1.84   0.64823  -9.4518
 4.55000    1.84     1.84   0.64797  -9.4522
 4.60000    1.84     1.84   0.64662  -9.4518
 4.65000    1.84     1.84   0.64911  -9.4522
 4.70000    1.84     1.84   0.64579  -9.4513
 4.75000    1.84     1.84   0.64790  -9.4513
 4.80000    1.84     1.84   0.64777  -9.4520
 4.85000    1.84     1.84   0.64735  -9.4526
 4.90000    1.84     1.84   0.64579  -9.4519
 4.95000    1.84     1.84   0.64689  -9.4509
 5.00000    1.84     1.84   0.64546  -9.4507
 5.05000    1.84     1.84   0.64599  -9.4515
 5.10000    1.84     1.84   0.64621  -9.4521
 5.15000    1.84     1.84   0.64755  -9.4518
 5.20000    1.84     1.84   0.64579  -9.4519
 5.25000    1.84     1.84   0.64676  -9.4520
 5.30000    1.84     1.84   0.64249  -9.4512
 5.35000    1.84     1.84   0.64431  -9.4515
 5.40000    1.84     1.84   0.64486  -9.4516
 5.45000    1.84     1.84   0.64337  -9.4517
 5.50000    1.84     1.84   0.64383  -9.4518
 5.55000    1.84     1.84   0.64390  -9.4519
 5.60000    1.84     1.84   0.64418  -9.4522
 5.65000    1.84     1.84   0.64161  -9.4521
 5.70000    1.84     1.84   0.64066  -9.4517
 5.75000    1.84     1.84   0.64121  -9.4520
 5.80000    1.84     1.84   0.64128  -9.4527
 5.85000    1.84     1.84   0.64053  -9.4521
 5.90000    1.84     1.84   0.64134  -9.4529
 5.95000    1.84     1.84   0.64115  -9.4530
 6.00000    1.84     1.84   0.64086  -9.4526
 6.05000    1.84     1.84   0.64073  -9.4526
 6.10000    1.84     1.84   0.63987  -9.4527
 6.15000    1.84     1.84   0.64027  -9.4536
 6.20000    1.84     1.84   0.63980  -9.4523
 6.25000    1.84     1.84   0.64040  -9.4524
 6.30000    1.84     1.84   0.63945  -9.4524
 6.35000    1.84     1.84   0.64174  -9.4524
 6.40000    1.84     1.84   0.64181  -9.4523
 6.45000    1.84     1.84   0.63851  -9.4523
 6.50000    1.84     1.84   0.63890  -9.4515
 6.55000    1.84     1.84   0.63864  -9.4522
 6.60000    1.84     1.84   0.63655  -9.4514
 6.65000    1.84     1.84   0.63870  -9.4518
 6.70000    1.84     1.84   0.63864  -9.4521
 6.75000    1.84     1.84   0.63785  -9.4520
 6.80000    1.84     1.84   0.63844  -9.4514
 6.85000    1.84     1.84   0.63505  -9.4510
 6.90000    1.84     1.84   0.63635  -9.4513
 6.95000    1.84     1.84   0.63560  -9.4517
 7.00000    1.84     1.84   0.63661  -9.4517
 7.00000    1.84     1.84   0.63499  -9.4518
 6.95000    1.84     1.84   0.63749  -9.4522
 6.90000    1.84     1.84   0.63675  -9.4520
 6.85000    1.84     1.84   0.63798  -9.4521
 6.80000    1.84     1.84   0.63756  -9.4520
 6.75000    1.84     1.84   0.63837  -9.4515
 6.70000    1.84     1.84   0.63932  -9.4515
 6.65000    1.84     1.84   0.63844  -9.4522
 6.60000    1.84     1.84   0.63756  -9.4513
 6.55000    1.84     1.84   0.63798  -9.4516
 6.50000    1.84     1.84   0.63897  -9.4518
 6.45000    1.84     1.84   0.63798  -9.4519
 6.40000    1.84     1.84   0.64093  -9.4519
 6.35000    1.84     1.84   0.63980  -9.4517
 6.30000    1.84     1.84   0.64148  -9.4519
 6.25000    1.84     1.84   0.63910  -9.4518
 6.20000    1.84     1.84   0.64046  -9.4523
 6.15000    1.84     1.84   0.64027  -9.4519
 6.10000    1.84     1.84   0.64277  -9.4522
 6.05000    1.84     1.84   0.64079  -9.4515
 6.00000    1.84     1.84   0.64370  -9.4523
 5.95000    1.84     1.84   0.64271  -9.4525
 5.90000    1.84     1.84   0.64262  -9.4524
 5.85000    1.84     1.84   0.64216  -9.4526
 5.80000    1.84     1.84   0.64376  -9.4518
 5.75000    1.84     1.84   0.63958  -9.4506
 5.70000    1.84     1.84   0.64033  -9.4501
 5.65000    1.84     1.84   0.64079  -9.4516
 5.60000    1.84     1.84   0.64121  -9.4515
 5.55000    1.84     1.84   0.64418  -9.4522
 5.50000    1.84     1.84   0.64440  -9.4516
 5.45000    1.84     1.84   0.64480  -9.4519
 5.40000    1.84     1.84   0.64579  -9.4516
 5.35000    1.84     1.84   0.64412  -9.4518
 5.30000    1.84     1.84   0.64513  -9.4520
 5.25000    1.84     1.84   0.64447  -9.4522
 5.20000    1.84     1.84   0.64460  -9.4521
 5.15000    1.84     1.84   0.64519  -9.4517
 5.10000    1.84     1.84   0.64506  -9.4520
 5.05000    1.84     1.84   0.64383  -9.4516
 5.00000    1.84     1.84   0.64539  -9.4513
 4.95000    1.84     1.84   0.64559  -9.4523
 4.90000    1.84     1.84   0.64572  -9.4522
 4.85000    1.84     1.84   0.64572  -9.4518
 4.80000    1.84     1.84   0.64607  -9.4519
 4.75000    1.84     1.84   0.64546  -9.4514
 4.70000    1.84     1.84   0.64676  -9.4519
 4.65000    1.84     1.84   0.64636  -9.4525
 4.60000    1.84     1.84   0.64676  -9.4523
 4.55000    1.84     1.84   0.64742  -9.4523
 4.50000    1.84     1.84   0.64742  -9.4525
 4.45000    1.84     1.84   0.64735  -9.4523
 4.40000    1.84     1.84   0.64722  -9.4526
 4.35000    1.84     1.84   0.64627  -9.4527
 4.30000    1.84     1.84   0.64742  -9.4528
 4.25000    1.84     1.84   0.64816  -9.4526
 4.20000    1.84     1.84   0.64768  -9.4529
 4.15000    1.84     1.84   0.64748  -9.4527
 4.10000    1.84     1.84   0.64810  -9.4525
 4.05000    1.84     1.84   0.64836  -9.4521
 4.00000    1.84     1.84   0.65122  -9.4523
 3.95000    1.84     1.84   0.64953  -9.4523
 3.90000    1.84     1.84   0.64986  -9.4526
 3.85000    1.84     1.84   0.64904  -9.4522
 3.80000    1.84     1.84   0.64924  -9.4522
 3.75000    1.84     1.84   0.64904  -9.4525
 3.70000    1.84     1.84   0.64891  -9.4529
 3.65000    1.84     1.84   0.64904  -9.4529
 3.60000    1.84     1.84   0.64878  -9.4519
 3.55000    1.84     1.84   0.64973  -9.4533
 3.50000    1.84     1.84   0.65087  -9.4528
 3.45000    1.84     1.84   0.65006  -9.4525
 3.40000    1.84     1.84   0.64992  -9.4526
 3.35000    1.84     1.84   0.64911  -9.4529
 3.30000    1.84     1.84   0.65087  -9.4530
 3.25000    1.84     1.84   0.65129  -9.4531
 3.20000    1.84     1.84   0.65234  -9.4531
 3.15000    1.84     1.84   0.65234  -9.4533
 3.10000    1.84     1.84   0.65116  -9.4521
 3.05000    1.84     1.84   0.65019  -9.4519
 3.00000    1.84     1.84   0.65274  -9.4526
 2.95000    1.84     1.84   0.65358  -9.4532
 2.90000    1.84     1.84   0.65465  -9.4538
 2.85000    1.84     1.84   0.65267  -9.4537
 2.80000    1.84     1.84   0.65325  -9.4528
 2.75000    1.84     1.84   0.65228  -9.4535
 2.70000    1.84     1.84   0.65505  -9.4537
 2.65000    1.84     1.84   0.65384  -9.4522
 2.60000    1.84     1.84   0.65351  -9.4521
 2.55000    1.84     1.84   0.65391  -9.4530
 2.50000    1.84     1.84   0.65498  -9.4538
 2.45000    1.84     1.84   0.65384  -9.4540
 2.40000    1.84     1.84   0.65122  -9.4536
 2.35000    1.84     1.84   0.65318  -9.4522
 2.30000    1.84     1.84   0.65567  -9.4536
 2.25000    1.84     1.84   0.65472  -9.4554
 2.20000    1.84     1.84   0.65479  -9.4538
 2.15000    1.84     1.84   0.65782  -9.4545
 2.10000    1.84     1.84   0.65492  -9.4535
 2.05000    1.84     1.84   0.65681  -9.4532
 2.00000    1.84     1.84   0.65613  -9.4538
 1.95000    1.84     1.84   0.65930  -9.4542
 1.90000    1.84     1.84   0.65655  -9.4544
 1.85000    1.84     1.84   0.65641  -9.4543
 1.80000    1.84     1.84   0.65749  -9.4543
 1.75000    1.84     1.84   0.65831  -9.4552
 1.70000    1.84     1.84   0.65903  -9.4543
 1.65000    1.84     1.84   0.65613  -9.4540
 1.60000    1.84     1.84   0.65837  -9.4540
 1.55000    1.84     1.84   0.66167  -9.4551
 1.50000    1.84     1.84   0.66020  -9.4558
 1.45000    1.84     1.84   0.66418  -9.4567
 1.40000    1.84     1.84   0.66216  -9.4573
 1.35000    1.84     1.84   0.66458  -9.4568
 1.30000    1.84     1.84   0.66330  -9.4571
 1.25000    1.84     1.84   0.66073  -9.4560
 1.20000    1.84     1.84   0.66618  -9.4573
 1.15000    1.84     1.84   0.66376  -9.4583
 1.10000    1.84     1.84   0.66444  -9.4582
 1.05000    1.84     1.84   0.66444  -9.4600
 1.00000    1.84     1.84   0.66444  -9.4592
 0.95000    1.84     1.84   0.66572  -9.4589
 0.90000    1.84     1.84   0.66262  -9.4606
 0.85000    1.84     1.84   0.66592  -9.4612
 0.80000    1.84     1.84   0.66642  -9.4623
 0.75000    1.84     1.84   0.66625  -9.4631
 0.70000    1.84     1.84   0.66506  -9.4637
 0.65000    1.84     1.84   0.66376  -9.4661
 0.60000    1.84     1.84   0.65910  -9.4664
 0.55000    1.84     1.84   0.65870  -9.4680
 0.50000    1.84     1.84   0.65674  -9.4690
 0.45000    1.84     1.84   0.64986  -9.4694
 0.40000    1.84     1.84   0.64878  -9.4701
 0.35000    1.84     1.84   0.64649  -9.4706
 0.30000    1.84     1.84   0.63952  -9.4712
 0.25000    1.84     1.84   0.64079  -9.4714
 0.20000    1.84     1.84   0.63824  -9.4714
 0.15000    1.84     1.84   0.63096  -9.4693
 0.10000    1.84     1.84   0.62729  -9.4709
 0.05000    1.84     1.84   0.62108  -9.4649
 -0.00000    1.84     1.84   0.62271  -9.4635
