 Field[T] Tsmpl[K] Tcntr[K] Signal   Mirror[MM]
 0.00000    1.82     1.82   0.24189  -9.4875
 0.01000    1.82     1.82   0.24186  -9.4881
 0.02000    1.82     1.82   0.24189  -9.4882
 0.03000    1.82     1.82   0.24164  -9.4873
 0.04000    1.82     1.82   0.24179  -9.4870
 0.05000    1.82     1.82   0.24172  -9.4892
 0.06000    1.82     1.82   0.24208  -9.4883
 0.07000    1.82     1.82   0.24183  -9.4902
 0.08000    1.82     1.82   0.24296  -9.4911
 0.09000    1.82     1.82   0.24210  -9.4900
 0.10000    1.82     1.82   0.24261  -9.4856
 0.11000    1.82     1.82   0.24281  -9.4853
 0.12000    1.82     1.82   0.24290  -9.4868
 0.13000    1.82     1.82   0.24303  -9.4856
 0.14000    1.82     1.82   0.24210  -9.4861
 0.15000    1.82     1.82   0.24361  -9.4875
 0.16000    1.82     1.82   0.24320  -9.4880
 0.17000    1.82     1.82   0.24268  -9.4872
 0.18000    1.82     1.82   0.24256  -9.4884
 0.19000    1.82     1.82   0.24307  -9.4876
 0.20000    1.82     1.82   0.24324  -9.4850
 0.21000    1.82     1.82   0.24256  -9.4864
 0.22000    1.82     1.82   0.24339  -9.4869
 0.23000    1.82     1.82   0.24334  -9.4883
 0.24000    1.82     1.82   0.24301  -9.4874
 0.25000    1.82     1.82   0.24300  -9.4841
 0.26000    1.82     1.82   0.24386  -9.4840
 0.27000    1.82     1.82   0.24354  -9.4848
 0.28000    1.82     1.82   0.24480  -9.4861
 0.29000    1.82     1.82   0.24412  -9.4889
 0.30000    1.82     1.82   0.24505  -9.4879
 0.31000    1.82     1.82   0.24482  -9.4872
 0.32000    1.82     1.82   0.24512  -9.4882
 0.33000    1.82     1.82   0.24461  -9.4874
 0.34000    1.82     1.82   0.24473  -9.4880
 0.35000    1.82     1.82   0.24473  -9.4873
 0.36000    1.82     1.82   0.24495  -9.4871
 0.37000    1.82     1.82   0.24534  -9.4877
 0.38000    1.82     1.82   0.24560  -9.4865
 0.39000    1.82     1.82   0.24529  -9.4856
 0.40000    1.82     1.82   0.24546  -9.4876
 0.41000    1.82     1.82   0.24562  -9.4848
 0.42000    1.82     1.82   0.24636  -9.4848
 0.43000    1.82     1.82   0.24580  -9.4848
 0.44000    1.82     1.82   0.24590  -9.4860
 0.45000    1.82     1.82   0.24606  -9.4865
 0.46000    1.82     1.82   0.24621  -9.4866
 0.47000    1.82     1.82   0.24606  -9.4867
 0.48000    1.82     1.82   0.24640  -9.4867
 0.49000    1.82     1.82   0.24682  -9.4873
 0.50000    1.82     1.82   0.24633  -9.4884
 0.51000    1.82     1.82   0.24684  -9.4875
 0.52000    1.82     1.82   0.24686  -9.4865
 0.53000    1.82     1.82   0.24720  -9.4853
 0.54000    1.82     1.82   0.24720  -9.4832
 0.55000    1.82     1.82   0.24755  -9.4851
 0.56000    1.82     1.82   0.24647  -9.4833
 0.57000    1.82     1.82   0.24713  -9.4821
 0.58000    1.82     1.82   0.24732  -9.4838
 0.59000    1.82     1.82   0.24693  -9.4823
 0.60000    1.82     1.82   0.24791  -9.4820
 0.61000    1.82     1.82   0.24812  -9.4822
 0.62000    1.82     1.82   0.24808  -9.4829
 0.63000    1.82     1.82   0.24798  -9.4808
 0.64000    1.82     1.82   0.24842  -9.4806
 0.65000    1.82     1.82   0.24830  -9.4793
 0.66000    1.82     1.82   0.24888  -9.4799
 0.67000    1.82     1.82   0.24885  -9.4798
 0.68000    1.82     1.82   0.24788  -9.4780
 0.69000    1.82     1.82   0.24864  -9.4785
 0.70000    1.82     1.82   0.24791  -9.4781
 0.71000    1.82     1.82   0.24805  -9.4781
 0.72000    1.82     1.82   0.24852  -9.4787
 0.73000    1.82     1.82   0.24929  -9.4775
 0.74000    1.82     1.82   0.24876  -9.4765
 0.75000    1.82     1.82   0.24929  -9.4781
 0.76000    1.82     1.82   0.24881  -9.4769
 0.77000    1.82     1.82   0.24912  -9.4776
 0.78000    1.82     1.82   0.24896  -9.4773
 0.79000    1.82     1.82   0.24934  -9.4770
 0.80000    1.82     1.82   0.24983  -9.4779
 0.81000    1.82     1.82   0.24864  -9.4751
 0.82000    1.82     1.82   0.24871  -9.4741
 0.83000    1.82     1.82   0.24857  -9.4745
 0.84000    1.82     1.82   0.24888  -9.4760
 0.85000    1.82     1.82   0.24915  -9.4744
 0.86000    1.82     1.82   0.24895  -9.4733
 0.87000    1.82     1.82   0.24961  -9.4721
 0.88000    1.82     1.82   0.24961  -9.4688
 0.89000    1.82     1.82   0.24941  -9.4693
 0.90000    1.82     1.82   0.24954  -9.4727
 0.91000    1.82     1.82   0.24980  -9.4719
 0.92000    1.82     1.82   0.24876  -9.4701
 0.93000    1.82     1.82   0.24738  -9.4701
 0.94000    1.82     1.82   0.25185  -9.4699
 0.95000    1.82     1.82   0.24891  -9.4710
 0.96000    1.82     1.82   0.25021  -9.4678
 0.97000    1.82     1.82   0.25112  -9.4682
 0.98000    1.82     1.82   0.24942  -9.4681
 0.99000    1.82     1.82   0.24956  -9.4698
 1.00000    1.82     1.82   0.24968  -9.4703
 1.00000    1.82     1.82   0.24944  -9.4696
 0.99000    1.82     1.82   0.25004  -9.4684
 0.98000    1.82     1.82   0.25033  -9.4723
 0.97000    1.82     1.82   0.25036  -9.4726
 0.96000    1.82     1.82   0.25039  -9.4728
 0.95000    1.82     1.82   0.25027  -9.4746
 0.94000    1.82     1.82   0.25046  -9.4696
 0.93000    1.82     1.82   0.25033  -9.4724
 0.92000    1.82     1.82   0.25056  -9.4719
 0.91000    1.82     1.82   0.25027  -9.4706
 0.90000    1.82     1.82   0.25041  -9.4699
 0.89000    1.82     1.82   0.24983  -9.4711
 0.88000    1.82     1.82   0.25060  -9.4706
 0.87000    1.82     1.82   0.25107  -9.4713
 0.86000    1.82     1.82   0.25102  -9.4722
 0.85000    1.82     1.82   0.25060  -9.4719
 0.84000    1.82     1.82   0.25021  -9.4738
 0.83000    1.82     1.82   0.25014  -9.4743
 0.82000    1.82     1.82   0.25087  -9.4745
 0.81000    1.82     1.82   0.25046  -9.4736
 0.80000    1.82     1.82   0.24941  -9.4729
 0.79000    1.82     1.82   0.24954  -9.4763
 0.78000    1.82     1.82   0.25021  -9.4750
 0.77000    1.82     1.82   0.24922  -9.4763
 0.76000    1.82     1.82   0.25061  -9.4766
 0.75000    1.82     1.82   0.25041  -9.4760
 0.74000    1.82     1.82   0.25048  -9.4761
 0.73000    1.82     1.82   0.25050  -9.4782
 0.72000    1.82     1.82   0.25046  -9.4788
 0.71000    1.82     1.82   0.24970  -9.4790
 0.70000    1.82     1.82   0.24975  -9.4777
 0.69000    1.82     1.82   0.24873  -9.4781
 0.68000    1.82     1.82   0.24941  -9.4792
 0.67000    1.82     1.82   0.24917  -9.4795
 0.66000    1.82     1.82   0.24927  -9.4758
 0.65000    1.82     1.82   0.24801  -9.4767
 0.64000    1.82     1.82   0.24927  -9.4783
 0.63000    1.82     1.82   0.24941  -9.4814
 0.62000    1.82     1.82   0.24919  -9.4833
 0.61000    1.82     1.82   0.24968  -9.4826
 0.60000    1.82     1.82   0.24878  -9.4822
 0.59000    1.82     1.82   0.24817  -9.4835
 0.58000    1.82     1.82   0.24830  -9.4832
 0.57000    1.82     1.82   0.24794  -9.4844
 0.56000    1.82     1.82   0.24789  -9.4841
 0.55000    1.82     1.82   0.24827  -9.4849
 0.54000    1.82     1.82   0.24771  -9.4851
 0.53000    1.82     1.82   0.24766  -9.4841
 0.52000    1.82     1.82   0.24742  -9.4842
 0.51000    1.82     1.82   0.24769  -9.4835
 0.50000    1.82     1.82   0.24738  -9.4845
 0.49000    1.82     1.82   0.24737  -9.4831
 0.48000    1.82     1.82   0.24764  -9.4846
 0.47000    1.82     1.82   0.24703  -9.4840
 0.46000    1.82     1.82   0.24716  -9.4840
 0.45000    1.82     1.82   0.24735  -9.4857
 0.44000    1.82     1.82   0.24665  -9.4847
 0.43000    1.82     1.82   0.24657  -9.4844
 0.42000    1.82     1.82   0.24614  -9.4834
 0.41000    1.82     1.82   0.24546  -9.4834
 0.40000    1.82     1.82   0.24613  -9.4864
 0.39000    1.82     1.82   0.24568  -9.4859
 0.38000    1.82     1.82   0.24594  -9.4858
 0.37000    1.82     1.82   0.24567  -9.4865
 0.36000    1.82     1.82   0.24608  -9.4881
 0.35000    1.82     1.82   0.24606  -9.4876
 0.34000    1.82     1.82   0.24604  -9.4878
 0.33000    1.82     1.82   0.24625  -9.4877
 0.32000    1.82     1.82   0.24562  -9.4864
 0.31000    1.82     1.82   0.24575  -9.4867
 0.30000    1.82     1.82   0.24560  -9.4880
 0.29000    1.82     1.82   0.24546  -9.4868
 0.28000    1.82     1.82   0.24441  -9.4864
 0.27000    1.82     1.82   0.24529  -9.4874
 0.26000    1.82     1.82   0.24509  -9.4870
 0.25000    1.82     1.82   0.24541  -9.4864
 0.24000    1.82     1.82   0.24500  -9.4887
 0.23000    1.82     1.82   0.24500  -9.4887
 0.22000    1.82     1.82   0.24519  -9.4882
 0.21000    1.82     1.82   0.24546  -9.4867
 0.20000    1.82     1.82   0.24514  -9.4882
 0.19000    1.82     1.82   0.24473  -9.4884
 0.18000    1.82     1.82   0.24426  -9.4919
 0.17000    1.82     1.82   0.24766  -9.4908
 0.16000    1.82     1.82   0.24471  -9.4871
 0.15000    1.82     1.82   0.24386  -9.4892
 0.14000    1.82     1.82   0.24363  -9.4894
 0.13000    1.82     1.82   0.24271  -9.4879
 0.12000    1.82     1.82   0.24281  -9.4869
 0.11000    1.82     1.82   0.24335  -9.4897
 0.10000    1.82     1.82   0.24342  -9.4872
 0.09000    1.82     1.82   0.24393  -9.4869
 0.08000    1.82     1.82   0.24264  -9.4879
 0.07000    1.82     1.82   0.24198  -9.4876
 0.06000    1.82     1.82   0.24237  -9.4878
 0.05000    1.82     1.82   0.24271  -9.4865
 0.04000    1.82     1.82   0.24244  -9.4859
 0.03000    1.82     1.82   0.24281  -9.4851
 0.02000    1.82     1.82   0.24346  -9.4883
 0.01000    1.82     1.82   0.24322  -9.4870
 -0.00000    1.82     1.82   0.24308  -9.4864
 -0.01000    1.82     1.82   0.24269  -9.4868
 -0.02000    1.82     1.82   0.24250  -9.4848
 -0.03000    1.82     1.82   0.24271  -9.4883
 -0.04000    1.82     1.82   0.24295  -9.4855
 -0.05000    1.82     1.82   0.24310  -9.4880
 -0.06000    1.82     1.82   0.24409  -9.4878
 -0.07000    1.82     1.82   0.24342  -9.4890
 -0.08000    1.82     1.82   0.24429  -9.4880
 -0.09000    1.82     1.82   0.24412  -9.4885
 -0.10000    1.82     1.82   0.24356  -9.4838
 -0.11000    1.82     1.82   0.24388  -9.4861
 -0.12000    1.82     1.82   0.24395  -9.4865
 -0.13000    1.82     1.82   0.24402  -9.4886
 -0.14000    1.82     1.82   0.24354  -9.4893
 -0.15000    1.82     1.82   0.24405  -9.4899
 -0.16000    1.82     1.82   0.24392  -9.4898
 -0.17000    1.82     1.82   0.24400  -9.4895
 -0.18000    1.82     1.82   0.24438  -9.4886
 -0.19000    1.82     1.82   0.24522  -9.4910
 -0.20000    1.82     1.82   0.24460  -9.4883
 -0.21000    1.82     1.82   0.24483  -9.4885
 -0.22000    1.82     1.82   0.24368  -9.4879
 -0.23000    1.82     1.82   0.24540  -9.4887
 -0.24000    1.82     1.82   0.24516  -9.4882
 -0.25000    1.82     1.82   0.24446  -9.4850
 -0.26000    1.82     1.82   0.24558  -9.4858
 -0.27000    1.82     1.82   0.24528  -9.4854
 -0.28000    1.82     1.82   0.24575  -9.4878
 -0.29000    1.82     1.82   0.24604  -9.4825
 -0.30000    1.82     1.82   0.24565  -9.4849
 -0.31000    1.82     1.82   0.24601  -9.4864
 -0.32000    1.82     1.82   0.24628  -9.4874
 -0.33000    1.82     1.82   0.24667  -9.4865
 -0.34000    1.82     1.82   0.24698  -9.4852
 -0.35000    1.82     1.82   0.24699  -9.4859
 -0.36000    1.82     1.82   0.24750  -9.4860
 -0.37000    1.82     1.82   0.24752  -9.4859
 -0.38000    1.82     1.82   0.24686  -9.4851
 -0.39000    1.82     1.82   0.24823  -9.4855
 -0.40000    1.82     1.82   0.24745  -9.4843
 -0.41000    1.82     1.82   0.24723  -9.4834
 -0.42000    1.82     1.82   0.24749  -9.4835
 -0.43000    1.82     1.82   0.24759  -9.4835
 -0.44000    1.82     1.82   0.24818  -9.4835
 -0.45000    1.82     1.82   0.24881  -9.4858
 -0.46000    1.82     1.82   0.24878  -9.4844
 -0.47000    1.82     1.82   0.24864  -9.4826
 -0.48000    1.82     1.82   0.24845  -9.4830
 -0.49000    1.82     1.82   0.24908  -9.4827
 -0.50000    1.82     1.82   0.24905  -9.4820
 -0.51000    1.82     1.82   0.24964  -9.4818
 -0.52000    1.82     1.82   0.25060  -9.4836
 -0.53000    1.82     1.82   0.25053  -9.4846
 -0.54000    1.82     1.82   0.25015  -9.4809
 -0.55000    1.82     1.82   0.24964  -9.4810
 -0.56000    1.82     1.82   0.25036  -9.4772
 -0.57000    1.82     1.82   0.25182  -9.4771
 -0.58000    1.82     1.82   0.25033  -9.4789
 -0.59000    1.82     1.82   0.24975  -9.4795
 -0.60000    1.82     1.82   0.25015  -9.4810
 -0.61000    1.82     1.82   0.24958  -9.4788
 -0.62000    1.82     1.82   0.25158  -9.4812
 -0.63000    1.82     1.82   0.25068  -9.4812
 -0.64000    1.82     1.82   0.25021  -9.4808
 -0.65000    1.82     1.82   0.25145  -9.4790
 -0.66000    1.82     1.82   0.25114  -9.4809
 -0.67000    1.82     1.82   0.25056  -9.4806
 -0.68000    1.82     1.82   0.25126  -9.4800
 -0.69000    1.82     1.82   0.25179  -9.4795
 -0.70000    1.82     1.82   0.25174  -9.4791
 -0.71000    1.82     1.82   0.25260  -9.4777
 -0.72000    1.82     1.82   0.25138  -9.4768
 -0.73000    1.82     1.82   0.25281  -9.4769
 -0.74000    1.82     1.82   0.25240  -9.4765
 -0.75000    1.82     1.82   0.25247  -9.4782
 -0.76000    1.82     1.82   0.25213  -9.4766
 -0.77000    1.82     1.82   0.25253  -9.4750
 -0.78000    1.82     1.82   0.25213  -9.4756
 -0.79000    1.82     1.82   0.25325  -9.4754
 -0.80000    1.82     1.82   0.25344  -9.4756
 -0.81000    1.82     1.82   0.25315  -9.4737
 -0.82000    1.82     1.82   0.25333  -9.4734
 -0.83000    1.82     1.82   0.25145  -9.4731
 -0.84000    1.82     1.82   0.25267  -9.4709
 -0.85000    1.82     1.82   0.25208  -9.4731
 -0.86000    1.82     1.82   0.25194  -9.4716
 -0.87000    1.82     1.82   0.25209  -9.4703
 -0.88000    1.82     1.82   0.25323  -9.4702
 -0.89000    1.82     1.82   0.25233  -9.4692
 -0.90000    1.82     1.82   0.25277  -9.4724
 -0.91000    1.82     1.82   0.25284  -9.4676
 -0.92000    1.82     1.82   0.25372  -9.4704
 -0.93000    1.82     1.82   0.25284  -9.4684
 -0.94000    1.82     1.82   0.25233  -9.4680
 -0.95000    1.82     1.82   0.25288  -9.4688
 -0.96000    1.82     1.82   0.25344  -9.4687
 -0.97000    1.82     1.82   0.25272  -9.4687
 -0.98000    1.82     1.82   0.25286  -9.4686
 -0.99000    1.82     1.82   0.25304  -9.4694
 -1.00000    1.82     1.82   0.25281  -9.4672
 -1.00000    1.82     1.82   0.25284  -9.4679
 -0.99000    1.82     1.82   0.25318  -9.4686
 -0.98000    1.82     1.82   0.25252  -9.4685
 -0.97000    1.82     1.82   0.25284  -9.4702
 -0.96000    1.82     1.82   0.25185  -9.4686
 -0.95000    1.82     1.82   0.25284  -9.4729
 -0.94000    1.82     1.82   0.25372  -9.4692
 -0.93000    1.82     1.82   0.25291  -9.4696
 -0.92000    1.82     1.82   0.25279  -9.4734
 -0.91000    1.82     1.82   0.25238  -9.4674
 -0.90000    1.82     1.82   0.25301  -9.4729
 -0.89000    1.82     1.82   0.25308  -9.4694
 -0.88000    1.82     1.82   0.25354  -9.4672
 -0.87000    1.82     1.82   0.25238  -9.4728
 -0.86000    1.82     1.82   0.25306  -9.4702
 -0.85000    1.82     1.82   0.25357  -9.4732
 -0.84000    1.82     1.82   0.25313  -9.4729
 -0.83000    1.82     1.82   0.25286  -9.4732
 -0.82000    1.82     1.82   0.25294  -9.4719
 -0.81000    1.82     1.82   0.25253  -9.4724
 -0.80000    1.82     1.82   0.25259  -9.4754
 -0.79000    1.82     1.82   0.25216  -9.4741
 -0.78000    1.82     1.82   0.25306  -9.4749
 -0.77000    1.82     1.82   0.25277  -9.4740
 -0.76000    1.82     1.82   0.25248  -9.4753
 -0.75000    1.82     1.82   0.25226  -9.4760
 -0.74000    1.82     1.82   0.25265  -9.4759
 -0.73000    1.82     1.82   0.25260  -9.4765
 -0.72000    1.82     1.82   0.25194  -9.4769
 -0.71000    1.82     1.82   0.25320  -9.4750
 -0.70000    1.82     1.82   0.25206  -9.4750
 -0.69000    1.82     1.82   0.25141  -9.4772
 -0.68000    1.82     1.82   0.25221  -9.4774
 -0.67000    1.82     1.82   0.25116  -9.4774
 -0.66000    1.82     1.82   0.25075  -9.4773
 -0.65000    1.82     1.82   0.25168  -9.4803
 -0.64000    1.82     1.82   0.25116  -9.4801
 -0.63000    1.82     1.82   0.25128  -9.4803
 -0.62000    1.82     1.82   0.25124  -9.4788
 -0.61000    1.82     1.82   0.25082  -9.4815
 -0.60000    1.82     1.82   0.25014  -9.4782
 -0.59000    1.82     1.82   0.25034  -9.4809
 -0.58000    1.82     1.82   0.25015  -9.4771
 -0.57000    1.82     1.82   0.25007  -9.4828
 -0.56000    1.82     1.82   0.25022  -9.4811
 -0.55000    1.82     1.82   0.25002  -9.4816
 -0.54000    1.82     1.82   0.25056  -9.4835
 -0.53000    1.82     1.82   0.25102  -9.4870
 -0.52000    1.82     1.82   0.25053  -9.4782
 -0.51000    1.82     1.82   0.24905  -9.4843
 -0.50000    1.82     1.82   0.24863  -9.4831
 -0.49000    1.82     1.82   0.24863  -9.4819
 -0.48000    1.82     1.82   0.24988  -9.4809
 -0.47000    1.82     1.82   0.24988  -9.4829
 -0.46000    1.82     1.82   0.25080  -9.4822
 -0.45000    1.82     1.82   0.24876  -9.4852
 -0.44000    1.82     1.82   0.25235  -9.4795
 -0.43000    1.82     1.82   0.24832  -9.4871
 -0.42000    1.82     1.82   0.24927  -9.4860
 -0.41000    1.82     1.82   0.24934  -9.4828
 -0.40000    1.82     1.82   0.24857  -9.4829
 -0.39000    1.82     1.82   0.24859  -9.4831
 -0.38000    1.82     1.82   0.24832  -9.4835
 -0.37000    1.82     1.82   0.24878  -9.4840
 -0.36000    1.82     1.82   0.24823  -9.4851
 -0.35000    1.82     1.82   0.24818  -9.4877
 -0.34000    1.82     1.82   0.24769  -9.4835
 -0.33000    1.82     1.82   0.24769  -9.4843
 -0.32000    1.82     1.82   0.24815  -9.4868
 -0.31000    1.82     1.82   0.24755  -9.4858
 -0.30000    1.82     1.82   0.24716  -9.4862
 -0.29000    1.82     1.82   0.24732  -9.4855
 -0.28000    1.82     1.82   0.24674  -9.4857
 -0.27000    1.82     1.82   0.24585  -9.4852
 -0.26000    1.82     1.82   0.24693  -9.4858
 -0.25000    1.82     1.82   0.24647  -9.4864
 -0.24000    1.82     1.82   0.24626  -9.4869
 -0.23000    1.82     1.82   0.24619  -9.4878
 -0.22000    1.82     1.82   0.24640  -9.4887
 -0.21000    1.82     1.82   0.24572  -9.4893
 -0.20000    1.82     1.82   0.24592  -9.4873
 -0.19000    1.82     1.82   0.24608  -9.4875
 -0.18000    1.82     1.82   0.24560  -9.4866
 -0.17000    1.82     1.82   0.24541  -9.4866
 -0.16000    1.82     1.82   0.24514  -9.4868
 -0.15000    1.82     1.82   0.24494  -9.4862
 -0.14000    1.82     1.82   0.24453  -9.4856
 -0.13000    1.82     1.82   0.24415  -9.4859
 -0.12000    1.82     1.82   0.24380  -9.4844
 -0.11000    1.82     1.82   0.24461  -9.4837
 -0.10000    1.82     1.82   0.24453  -9.4867
 -0.09000    1.82     1.82   0.24444  -9.4862
 -0.08000    1.82     1.82   0.24393  -9.4867
 -0.07000    1.82     1.82   0.24354  -9.4859
 -0.06000    1.82     1.82   0.24327  -9.4860
 -0.05000    1.82     1.82   0.24242  -9.4875
 -0.04000    1.82     1.82   0.24196  -9.4861
 -0.03000    1.82     1.82   0.24264  -9.4835
 -0.02000    1.82     1.82   0.24283  -9.4833
 -0.01000    1.82     1.82   0.24271  -9.4836
 0.00000    1.82     1.82   0.24208  -9.4826
