 Field[T] Tsmpl[K] Tcntr[K] Signal
 0.00000    1.79     1.81   4.88990
 0.05000    1.79     1.81   4.88720
 0.10000    1.79     1.81   4.89130
 0.15000    1.79     1.81   4.89270
 0.20000    1.79     1.81   4.89270
 0.25000    1.79     1.81   4.89520
 0.30000    1.79     1.81   4.89070
 0.35000    1.79     1.81   4.88990
 0.40000    1.79     1.81   4.88780
 0.45000    1.79     1.81   4.89090
 0.50000    1.79     1.81   4.89270
 0.55000    1.79     1.82   4.89030
 0.60000    1.79     1.82   4.89010
 0.65000    1.79     1.82   4.89270
 0.70000    1.79     1.82   4.89540
 0.75000    1.79     1.82   4.89590
 0.80000    1.79     1.82   4.89340
 0.85000    1.79     1.82   4.88750
 0.90000    1.79     1.82   4.88240
 0.95000    1.79     1.82   4.88010
 1.00000    1.79     1.82   4.87580
 1.05000    1.79     1.82   4.87510
 1.10000    1.79     1.82   4.87190
 1.15000    1.79     1.82   4.86780
 1.20000    1.79     1.82   4.86490
 1.25000    1.80     1.82   4.85920
 1.30000    1.80     1.82   4.85460
 1.35000    1.80     1.82   4.85090
 1.40000    1.80     1.82   4.84300
 1.45000    1.80     1.82   4.84010
 1.50000    1.80     1.82   4.83380
 1.55000    1.80     1.82   4.82340
 1.60000    1.80     1.82   4.81960
 1.65000    1.80     1.83   4.81060
 1.70000    1.80     1.83   4.80130
 1.75000    1.80     1.83   4.79280
 1.80000    1.80     1.83   4.78400
 1.85000    1.80     1.83   4.78040
 1.90000    1.80     1.83   4.78270
 1.95000    1.80     1.83   4.78540
 2.00000    1.80     1.83   4.78920
 2.05000    1.80     1.83   4.79320
 2.10000    1.80     1.83   4.79310
 2.15000    1.80     1.83   4.79320
 2.20000    1.80     1.83   4.79200
 2.25000    1.80     1.83   4.79460
 2.30000    1.80     1.83   4.79030
 2.35000    1.80     1.84   4.78760
 2.40000    1.81     1.84   4.78740
 2.45000    1.81     1.84   4.78170
 2.50000    1.81     1.84   4.77900
 2.55000    1.81     1.84   4.77180
 2.60000    1.81     1.84   4.77010
 2.65000    1.81     1.84   4.76540
 2.70000    1.81     1.84   4.76110
 2.75000    1.81     1.84   4.76150
 2.80000    1.81     1.84   4.75670
 2.85000    1.81     1.84   4.75260
 2.90000    1.81     1.84   4.75040
 2.95000    1.81     1.85   4.74700
 3.00000    1.81     1.85   4.74830
 3.05000    1.81     1.85   4.74310
 3.10000    1.81     1.85   4.74030
 3.15000    1.81     1.85   4.73470
 3.20000    1.81     1.85   4.73360
 3.25000    1.81     1.85   4.73430
 3.30000    1.81     1.85   4.72800
 3.35000    1.81     1.85   4.72980
 3.40000    1.81     1.85   4.72740
 3.45000    1.81     1.85   4.72520
 3.50000    1.81     1.85   4.72840
 3.55000    1.82     1.85   4.72910
 3.60000    1.82     1.85   4.73260
 3.65000    1.82     1.85   4.72820
 3.70000    1.82     1.85   4.72780
 3.75000    1.82     1.85   4.72810
 3.80000    1.82     1.85   4.72510
 3.85000    1.82     1.85   4.72720
 3.90000    1.82     1.85   4.73000
 3.95000    1.82     1.85   4.72970
 4.00000    1.82     1.85   4.72790
 4.05000    1.82     1.85   4.72300
 4.10000    1.82     1.85   4.71260
 4.15000    1.82     1.85   4.71170
 4.20000    1.82     1.85   4.69940
 4.25000    1.82     1.85   4.68800
 4.30000    1.82     1.85   4.67270
 4.35000    1.82     1.85   4.66050
 4.40000    1.82     1.85   4.65190
 4.45000    1.82     1.86   4.64350
 4.50000    1.82     1.86   4.63770
 4.55000    1.82     1.86   4.63170
 4.60000    1.82     1.86   4.62220
 4.65000    1.82     1.86   4.61510
 4.70000    1.82     1.86   4.61360
 4.75000    1.82     1.86   4.60550
 4.80000    1.82     1.86   4.59490
 4.85000    1.82     1.86   4.58790
 4.90000    1.82     1.86   4.58270
 4.95000    1.82     1.86   4.57330
 5.00000    1.82     1.86   4.56400
 5.00000    1.82     1.86   4.56680
 4.95000    1.82     1.86   4.57030
 4.90000    1.82     1.86   4.57550
 4.85000    1.82     1.86   4.57890
 4.80000    1.82     1.86   4.58580
 4.75000    1.82     1.86   4.58810
 4.70000    1.82     1.86   4.59460
 4.65000    1.82     1.86   4.60630
 4.60000    1.82     1.85   4.61160
 4.55000    1.81     1.85   4.61560
 4.50000    1.81     1.85   4.62930
 4.45000    1.81     1.85   4.63610
 4.40000    1.81     1.85   4.63870
 4.35000    1.81     1.85   4.64760
 4.30000    1.81     1.85   4.65410
 4.25000    1.81     1.85   4.65950
 4.20000    1.81     1.85   4.67040
 4.15000    1.81     1.85   4.68360
 4.10000    1.81     1.85   4.69730
 4.05000    1.81     1.85   4.70840
 4.00000    1.81     1.84   4.71990
 3.95000    1.81     1.84   4.72780
 3.90000    1.81     1.84   4.73010
 3.85000    1.81     1.84   4.73390
 3.80000    1.81     1.84   4.73440
 3.75000    1.81     1.84   4.73530
 3.70000    1.81     1.84   4.73390
 3.65000    1.81     1.84   4.73430
 3.60000    1.80     1.84   4.73350
 3.55000    1.80     1.84   4.73400
 3.50000    1.80     1.84   4.73790
 3.45000    1.80     1.84   4.73280
 3.40000    1.80     1.84   4.73230
 3.35000    1.80     1.84   4.73330
 3.30000    1.80     1.84   4.73350
 3.25000    1.80     1.83   4.73650
 3.20000    1.80     1.83   4.73860
 3.15000    1.80     1.83   4.74320
 3.10000    1.80     1.83   4.74890
 3.05000    1.80     1.83   4.74820
 3.00000    1.80     1.83   4.74750
 2.95000    1.80     1.83   4.74950
 2.90000    1.80     1.83   4.75040
 2.85000    1.80     1.83   4.75170
 2.80000    1.80     1.83   4.75630
 2.75000    1.80     1.83   4.76000
 2.70000    1.80     1.83   4.76340
 2.65000    1.80     1.83   4.76740
 2.60000    1.80     1.83   4.77290
 2.55000    1.80     1.83   4.77560
 2.50000    1.80     1.83   4.78350
 2.45000    1.80     1.83   4.78340
 2.40000    1.79     1.83   4.78920
 2.35000    1.79     1.83   4.79460
 2.30000    1.79     1.82   4.79710
 2.25000    1.79     1.82   4.80230
 2.20000    1.79     1.82   4.80460
 2.15000    1.79     1.82   4.80600
 2.10000    1.79     1.82   4.80600
 2.05000    1.79     1.82   4.80610
 2.00000    1.79     1.82   4.80330
 1.95000    1.79     1.82   4.80200
 1.90000    1.79     1.82   4.79910
 1.85000    1.79     1.82   4.79890
 1.80000    1.79     1.82   4.80450
 1.75000    1.79     1.82   4.81160
 1.70000    1.79     1.82   4.82410
 1.65000    1.79     1.82   4.83400
 1.60000    1.79     1.82   4.84080
 1.55000    1.79     1.82   4.84500
 1.50000    1.79     1.82   4.85100
 1.45000    1.79     1.82   4.85910
 1.40000    1.79     1.82   4.86100
 1.35000    1.79     1.82   4.86520
 1.30000    1.79     1.82   4.87010
 1.25000    1.79     1.82   4.87580
 1.20000    1.79     1.81   4.88130
 1.15000    1.79     1.81   4.88380
 1.10000    1.79     1.81   4.88380
 1.05000    1.79     1.81   4.88860
 1.00000    1.79     1.81   4.88890
 0.95000    1.79     1.81   4.89250
 0.90000    1.79     1.81   4.89930
 0.85000    1.79     1.81   4.89930
 0.80000    1.79     1.81   4.90310
 0.75000    1.79     1.81   4.90600
 0.70000    1.79     1.81   4.90360
 0.65000    1.79     1.81   4.90600
 0.60000    1.79     1.81   4.91050
 0.55000    1.79     1.81   4.90990
 0.50000    1.79     1.81   4.91260
 0.45000    1.79     1.81   4.91150
 0.40000    1.79     1.81   4.91120
 0.35000    1.79     1.81   4.90970
 0.30000    1.79     1.81   4.91030
 0.25000    1.79     1.81   4.91310
 0.20000    1.79     1.81   4.91370
 0.15000    1.79     1.81   4.91650
 0.10000    1.79     1.81   4.91440
 0.05000    1.79     1.81   4.91410
-0.00000    1.79     1.81   4.91750
