 Field[T] Tsmpl[K] Tcntr[K] Signal
 0.00000    1.80     1.82   5.99640
 0.05000    1.80     1.82   5.99370
 0.10000    1.80     1.82   5.99520
 0.15000    1.80     1.82   6.00140
 0.20000    1.80     1.82   6.00120
 0.25000    1.80     1.82   6.00370
 0.30000    1.80     1.82   6.00080
 0.35000    1.80     1.82   6.00050
 0.40000    1.80     1.82   6.00480
 0.45000    1.80     1.82   6.01200
 0.50000    1.80     1.82   6.01080
 0.55000    1.80     1.82   6.01200
 0.60000    1.80     1.82   6.01470
 0.65000    1.80     1.82   6.02400
 0.70000    1.80     1.82   6.02680
 0.75000    1.80     1.82   6.02830
 0.80000    1.80     1.82   6.02900
 0.85000    1.80     1.82   6.03650
 0.90000    1.80     1.82   6.03450
 0.95000    1.80     1.82   6.03700
 1.00000    1.80     1.82   6.03810
 1.05000    1.80     1.82   6.04030
 1.10000    1.80     1.82   6.03980
 1.15000    1.80     1.82   6.04100
 1.20000    1.80     1.82   6.04270
 1.25000    1.80     1.82   6.04390
 1.30000    1.80     1.82   6.04640
 1.35000    1.80     1.82   6.03880
 1.40000    1.80     1.82   6.04580
 1.45000    1.80     1.83   6.04300
 1.50000    1.80     1.83   6.04610
 1.55000    1.80     1.83   6.04100
 1.60000    1.80     1.83   6.04350
 1.65000    1.80     1.83   6.04170
 1.70000    1.80     1.83   6.03930
 1.75000    1.80     1.83   6.04170
 1.80000    1.80     1.83   6.03850
 1.85000    1.80     1.83   6.03310
 1.90000    1.80     1.83   6.03240
 1.95000    1.80     1.83   6.02650
 2.00000    1.80     1.83   6.01420
 2.05000    1.80     1.83   6.02650
 2.10000    1.80     1.83   6.01050
 2.15000    1.81     1.83   5.99470
 2.20000    1.81     1.83   5.99040
 2.25000    1.81     1.84   5.96350
 2.30000    1.81     1.84   5.94970
 2.35000    1.81     1.84   5.94020
 2.40000    1.81     1.84   5.94720
 2.45000    1.81     1.84   5.95790
 2.50000    1.81     1.84   5.97600
 2.55000    1.81     1.84   5.99510
 2.60000    1.81     1.84   6.01380
 2.65000    1.81     1.84   6.03630
 2.70000    1.81     1.84   6.03610
 2.75000    1.81     1.84   6.04470
 2.80000    1.81     1.84   6.05640
 2.85000    1.81     1.84   6.06810
 2.90000    1.81     1.84   6.08430
 2.95000    1.81     1.84   6.09330
 3.00000    1.82     1.84   6.10440
 3.05000    1.82     1.85   6.11100
 3.10000    1.82     1.85   6.11790
 3.15000    1.82     1.85   6.12200
 3.20000    1.82     1.85   6.11920
 3.25000    1.82     1.85   6.12160
 3.30000    1.82     1.85   6.12090
 3.35000    1.82     1.85   6.11660
 3.40000    1.82     1.85   6.11840
 3.45000    1.82     1.85   6.11750
 3.50000    1.82     1.85   6.12370
 3.55000    1.82     1.85   6.12480
 3.60000    1.82     1.85   6.12590
 3.65000    1.82     1.85   6.13050
 3.70000    1.82     1.85   6.13180
 3.75000    1.82     1.86   6.13230
 3.80000    1.82     1.86   6.13810
 3.85000    1.82     1.86   6.14420
 3.90000    1.82     1.86   6.14880
 3.95000    1.82     1.86   6.15670
 4.00000    1.82     1.86   6.16260
 4.05000    1.82     1.86   6.16790
 4.10000    1.82     1.86   6.16950
 4.15000    1.82     1.86   6.16970
 4.20000    1.82     1.86   6.17390
 4.25000    1.82     1.86   6.17310
 4.30000    1.82     1.86   6.17860
 4.35000    1.82     1.86   6.18100
 4.40000    1.82     1.86   6.18820
 4.45000    1.82     1.86   6.19170
 4.50000    1.82     1.86   6.20160
 4.55000    1.82     1.86   6.20170
 4.60000    1.82     1.86   6.20880
 4.65000    1.82     1.86   6.21290
 4.70000    1.83     1.86   6.21880
 4.75000    1.83     1.86   6.22260
 4.80000    1.83     1.86   6.22940
 4.85000    1.83     1.87   6.23260
 4.90000    1.83     1.87   6.23610
 4.95000    1.83     1.87   6.24250
 5.00000    1.83     1.87   6.24990
 5.00000    1.83     1.87   6.24800
 4.95000    1.83     1.87   6.24130
 4.90000    1.83     1.87   6.24370
 4.85000    1.83     1.87   6.23930
 4.80000    1.83     1.87   6.23560
 4.75000    1.83     1.87   6.22930
 4.70000    1.83     1.87   6.22660
 4.65000    1.83     1.86   6.22250
 4.60000    1.83     1.86   6.22310
 4.55000    1.83     1.86   6.21730
 4.50000    1.82     1.86   6.21220
 4.45000    1.82     1.86   6.21050
 4.40000    1.82     1.86   6.20440
 4.35000    1.82     1.86   6.20190
 4.30000    1.82     1.86   6.19530
 4.25000    1.82     1.86   6.19370
 4.20000    1.82     1.86   6.18620
 4.15000    1.82     1.86   6.18030
 4.10000    1.82     1.86   6.17530
 4.05000    1.82     1.86   6.17430
 4.00000    1.82     1.86   6.17080
 3.95000    1.82     1.85   6.16490
 3.90000    1.82     1.85   6.16370
 3.85000    1.82     1.85   6.16690
 3.80000    1.82     1.85   6.16460
 3.75000    1.82     1.85   6.16060
 3.70000    1.82     1.85   6.15670
 3.65000    1.82     1.85   6.15090
 3.60000    1.82     1.85   6.14340
 3.55000    1.82     1.85   6.13880
 3.50000    1.82     1.85   6.14410
 3.45000    1.82     1.85   6.14520
 3.40000    1.81     1.85   6.13550
 3.35000    1.81     1.85   6.13710
 3.30000    1.81     1.85   6.13290
 3.25000    1.81     1.85   6.13570
 3.20000    1.81     1.85   6.14040
 3.15000    1.81     1.85   6.13700
 3.10000    1.81     1.84   6.13180
 3.05000    1.81     1.84   6.12800
 3.00000    1.81     1.84   6.11820
 2.95000    1.81     1.84   6.11470
 2.90000    1.81     1.84   6.11040
 2.85000    1.81     1.84   6.10260
 2.80000    1.81     1.84   6.09360
 2.75000    1.81     1.84   6.08270
 2.70000    1.81     1.84   6.06900
 2.65000    1.81     1.84   6.05120
 2.60000    1.81     1.84   6.03110
 2.55000    1.81     1.84   6.01720
 2.50000    1.81     1.84   5.99810
 2.45000    1.81     1.84   5.97590
 2.40000    1.81     1.84   5.96600
 2.35000    1.81     1.84   5.95530
 2.30000    1.81     1.84   5.95710
 2.25000    1.81     1.84   5.97340
 2.20000    1.81     1.84   5.98890
 2.15000    1.81     1.83   6.00370
 2.10000    1.81     1.83   6.01790
 2.05000    1.81     1.83   6.02500
 2.00000    1.81     1.83   6.03400
 1.95000    1.81     1.83   6.03640
 1.90000    1.81     1.83   6.03850
 1.85000    1.81     1.83   6.04700
 1.80000    1.81     1.83   6.05130
 1.75000    1.81     1.83   6.05610
 1.70000    1.81     1.83   6.05800
 1.65000    1.80     1.83   6.06010
 1.60000    1.80     1.83   6.06320
 1.55000    1.80     1.83   6.06420
 1.50000    1.80     1.83   6.06440
 1.45000    1.80     1.83   6.06740
 1.40000    1.80     1.83   6.06600
 1.35000    1.80     1.83   6.06910
 1.30000    1.80     1.83   6.06990
 1.25000    1.80     1.83   6.07090
 1.20000    1.80     1.83   6.07530
 1.15000    1.80     1.83   6.07550
 1.10000    1.80     1.83   6.07590
 1.05000    1.80     1.83   6.07460
 1.00000    1.80     1.83   6.07840
 0.95000    1.80     1.83   6.07600
 0.90000    1.80     1.82   6.07980
 0.85000    1.80     1.82   6.07450
 0.80000    1.80     1.82   6.07600
 0.75000    1.80     1.82   6.07320
 0.70000    1.80     1.82   6.07690
 0.65000    1.80     1.82   6.06950
 0.60000    1.80     1.82   6.07050
 0.55000    1.80     1.82   6.06670
 0.50000    1.80     1.82   6.06450
 0.45000    1.80     1.82   6.06930
 0.40000    1.80     1.82   6.06740
 0.35000    1.80     1.82   6.06920
 0.30000    1.80     1.82   6.06520
 0.25000    1.80     1.82   6.06530
 0.20000    1.80     1.82   6.06730
 0.15000    1.80     1.82   6.06360
 0.10000    1.80     1.82   6.06510
 0.05000    1.80     1.82   6.06450
-0.00000    1.80     1.82   6.05940
