 Field[T] Tsmpl[K] Tcntr[K] Signal   Mirror[MM]
 0.00000    1.79     1.79   0.25930  -9.4468
 0.02000    1.79     1.79   0.25775  -9.4409
 0.04000    1.79     1.79   0.25916  -9.4450
 0.06000    1.79     1.79   0.25850  -9.4461
 0.08000    1.79     1.79   0.25808  -9.4476
 0.10000    1.79     1.79   0.25813  -9.4490
 0.12000    1.79     1.79   0.25782  -9.4490
 0.14000    1.79     1.79   0.25758  -9.4502
 0.16000    1.79     1.79   0.25738  -9.4511
 0.18000    1.79     1.79   0.25695  -9.4512
 0.20000    1.79     1.79   0.25697  -9.4520
 0.22000    1.79     1.79   0.25691  -9.4537
 0.24000    1.79     1.79   0.25681  -9.4541
 0.26000    1.79     1.79   0.25659  -9.4551
 0.28000    1.79     1.79   0.25663  -9.4557
 0.30000    1.79     1.79   0.25654  -9.4566
 0.32000    1.79     1.79   0.25682  -9.4583
 0.34000    1.79     1.79   0.25667  -9.4583
 0.36000    1.79     1.79   0.25650  -9.4592
 0.38000    1.79     1.79   0.25629  -9.4600
 0.40000    1.79     1.79   0.25632  -9.4614
 0.42000    1.79     1.79   0.25616  -9.4617
 0.44000    1.79     1.79   0.25633  -9.4631
 0.46000    1.79     1.79   0.25656  -9.4637
 0.48000    1.79     1.79   0.25658  -9.4641
 0.50000    1.79     1.79   0.25673  -9.4652
 0.52000    1.79     1.79   0.25674  -9.4651
 0.54000    1.79     1.79   0.25687  -9.4656
 0.56000    1.79     1.79   0.25692  -9.4660
 0.58000    1.79     1.79   0.25738  -9.4670
 0.60000    1.79     1.79   0.25743  -9.4672
 0.62000    1.79     1.79   0.25718  -9.4669
 0.64000    1.79     1.79   0.25740  -9.4670
 0.66000    1.79     1.79   0.25774  -9.4674
 0.68000    1.79     1.79   0.25728  -9.4670
 0.70000    1.79     1.79   0.25751  -9.4670
 0.72000    1.79     1.79   0.25770  -9.4675
 0.74000    1.79     1.79   0.25766  -9.4681
 0.76000    1.79     1.79   0.25787  -9.4674
 0.78000    1.79     1.79   0.25776  -9.4675
 0.80000    1.79     1.79   0.25789  -9.4675
 0.82000    1.79     1.79   0.25768  -9.4669
 0.84000    1.79     1.79   0.25769  -9.4676
 0.86000    1.79     1.79   0.25773  -9.4678
 0.88000    1.79     1.79   0.25772  -9.4677
 0.90000    1.79     1.79   0.25768  -9.4671
 0.92000    1.79     1.79   0.25764  -9.4674
 0.94000    1.79     1.79   0.25758  -9.4672
 0.96000    1.79     1.79   0.25786  -9.4675
 0.98000    1.79     1.79   0.25751  -9.4670
 1.00000    1.79     1.79   0.25747  -9.4676
 1.02000    1.79     1.79   0.25749  -9.4673
 1.04000    1.79     1.79   0.25754  -9.4669
 1.06000    1.79     1.79   0.25749  -9.4671
 1.08000    1.79     1.79   0.25750  -9.4677
 1.10000    1.79     1.79   0.25761  -9.4677
 1.12000    1.79     1.79   0.25742  -9.4679
 1.14000    1.79     1.79   0.25758  -9.4673
 1.16000    1.79     1.79   0.25764  -9.4675
 1.18000    1.79     1.79   0.25775  -9.4672
 1.20000    1.79     1.79   0.25774  -9.4671
 1.22000    1.79     1.79   0.25765  -9.4675
 1.24000    1.79     1.79   0.25776  -9.4675
 1.26000    1.79     1.79   0.25768  -9.4674
 1.28000    1.79     1.79   0.25763  -9.4677
 1.30000    1.79     1.79   0.25742  -9.4672
 1.32000    1.79     1.79   0.25748  -9.4674
 1.34000    1.79     1.79   0.25754  -9.4675
 1.36000    1.79     1.79   0.25760  -9.4674
 1.38000    1.79     1.79   0.25755  -9.4678
 1.40000    1.79     1.79   0.25774  -9.4682
 1.42000    1.79     1.79   0.25768  -9.4681
 1.44000    1.79     1.79   0.25754  -9.4675
 1.46000    1.79     1.79   0.25753  -9.4684
 1.48000    1.79     1.79   0.25718  -9.4676
 1.50000    1.79     1.79   0.25714  -9.4679
 1.52000    1.79     1.79   0.25741  -9.4680
 1.54000    1.79     1.79   0.25740  -9.4678
 1.56000    1.79     1.79   0.25742  -9.4679
 1.58000    1.79     1.79   0.25736  -9.4679
 1.60000    1.79     1.79   0.25744  -9.4681
 1.62000    1.79     1.79   0.25750  -9.4672
 1.64000    1.79     1.79   0.25755  -9.4680
 1.66000    1.79     1.79   0.25750  -9.4677
 1.68000    1.79     1.79   0.25771  -9.4682
 1.70000    1.79     1.79   0.25753  -9.4677
 1.72000    1.79     1.79   0.25738  -9.4679
 1.74000    1.79     1.79   0.25748  -9.4677
 1.76000    1.79     1.79   0.25739  -9.4677
 1.78000    1.79     1.79   0.25761  -9.4679
 1.80000    1.79     1.79   0.25750  -9.4675
 1.82000    1.79     1.79   0.25737  -9.4674
 1.84000    1.79     1.79   0.25740  -9.4678
 1.86000    1.79     1.79   0.25739  -9.4675
 1.88000    1.79     1.79   0.25757  -9.4675
 1.90000    1.79     1.79   0.25764  -9.4679
 1.92000    1.79     1.79   0.25740  -9.4675
 1.94000    1.79     1.79   0.25766  -9.4679
 1.96000    1.79     1.79   0.25733  -9.4670
 1.98000    1.79     1.79   0.25745  -9.4670
 2.00000    1.79     1.79   0.25739  -9.4672
