 Field[T] Tsmpl[K] Tcntr[K] Signal   Mirror[MM]
 7.00000    1.83     1.83   0.24816  -9.4621
 6.95000    1.83     1.83   0.24834  -9.4629
 6.90000    1.83     1.83   0.24774  -9.4629
 6.85000    1.83     1.83   0.24788  -9.4628
 6.80000    1.83     1.83   0.24746  -9.4623
 6.75000    1.83     1.83   0.24732  -9.4622
 6.70000    1.83     1.83   0.24763  -9.4625
 6.65000    1.83     1.83   0.24851  -9.4624
 6.60000    1.83     1.83   0.24925  -9.4631
 6.55000    1.83     1.83   0.24862  -9.4631
 6.50000    1.83     1.83   0.24828  -9.4625
 6.45000    1.83     1.83   0.24823  -9.4630
 6.40000    1.83     1.83   0.24788  -9.4630
 6.35000    1.83     1.83   0.24807  -9.4630
 6.30000    1.83     1.83   0.24805  -9.4635
 6.25000    1.83     1.83   0.24798  -9.4638
 6.20000    1.83     1.83   0.24773  -9.4636
 6.15000    1.83     1.83   0.24780  -9.4638
 6.10000    1.83     1.83   0.24792  -9.4634
 6.05000    1.83     1.83   0.24815  -9.4641
 6.00000    1.83     1.83   0.24786  -9.4638
 5.95000    1.83     1.83   0.24801  -9.4640
 5.90000    1.83     1.83   0.24834  -9.4635
 5.85000    1.83     1.83   0.24911  -9.4642
 5.80000    1.83     1.83   0.24852  -9.4633
 5.75000    1.83     1.83   0.24883  -9.4634
 5.70000    1.83     1.83   0.24861  -9.4632
 5.65000    1.83     1.83   0.24847  -9.4634
 5.60000    1.83     1.83   0.24901  -9.4637
 5.55000    1.83     1.83   0.24911  -9.4637
 5.50000    1.83     1.83   0.24908  -9.4639
 5.45000    1.83     1.83   0.24880  -9.4639
 5.40000    1.83     1.83   0.24925  -9.4640
 5.35000    1.83     1.83   0.24893  -9.4637
 5.30000    1.83     1.83   0.24926  -9.4640
 5.25000    1.83     1.83   0.24870  -9.4637
 5.20000    1.83     1.83   0.24938  -9.4637
 5.15000    1.83     1.83   0.24860  -9.4635
 5.10000    1.83     1.83   0.24908  -9.4638
 5.05000    1.83     1.83   0.24919  -9.4638
 5.00000    1.83     1.83   0.24908  -9.4641
 4.95000    1.83     1.83   0.24911  -9.4640
 4.90000    1.83     1.83   0.24937  -9.4644
 4.85000    1.83     1.83   0.24957  -9.4644
 4.80000    1.83     1.83   0.24965  -9.4639
 4.75000    1.83     1.83   0.25008  -9.4639
 4.70000    1.83     1.83   0.25021  -9.4641
 4.65000    1.83     1.83   0.25028  -9.4642
 4.60000    1.83     1.83   0.25071  -9.4641
 4.55000    1.83     1.83   0.25071  -9.4641
 4.50000    1.83     1.83   0.25056  -9.4640
 4.45000    1.83     1.83   0.25109  -9.4642
 4.40000    1.83     1.83   0.25099  -9.4644
 4.35000    1.83     1.83   0.25107  -9.4643
 4.30000    1.83     1.83   0.25079  -9.4648
 4.25000    1.83     1.83   0.25109  -9.4643
 4.20000    1.83     1.83   0.25121  -9.4643
 4.15000    1.83     1.83   0.25168  -9.4642
 4.10000    1.83     1.83   0.25168  -9.4646
 4.05000    1.83     1.83   0.25245  -9.4647
 4.00000    1.83     1.83   0.25145  -9.4647
 3.95000    1.83     1.83   0.25248  -9.4651
 3.90000    1.83     1.83   0.25221  -9.4643
 3.85000    1.83     1.83   0.25254  -9.4647
 3.80000    1.83     1.83   0.25240  -9.4652
 3.75000    1.83     1.83   0.25257  -9.4646
 3.70000    1.83     1.83   0.25252  -9.4651
 3.65000    1.83     1.83   0.25276  -9.4649
 3.60000    1.83     1.83   0.25259  -9.4649
 3.55000    1.83     1.83   0.25267  -9.4649
 3.50000    1.83     1.83   0.25284  -9.4650
 3.45000    1.83     1.83   0.25277  -9.4648
 3.40000    1.83     1.83   0.25276  -9.4651
 3.35000    1.83     1.83   0.25338  -9.4657
 3.30000    1.83     1.83   0.25366  -9.4651
 3.25000    1.83     1.83   0.25376  -9.4653
 3.20000    1.83     1.83   0.25349  -9.4655
 3.15000    1.83     1.83   0.25382  -9.4652
 3.10000    1.83     1.83   0.25366  -9.4649
 3.05000    1.83     1.83   0.25405  -9.4656
 3.00000    1.83     1.83   0.25463  -9.4652
 2.95000    1.83     1.83   0.25454  -9.4650
 2.90000    1.83     1.83   0.25416  -9.4649
 2.85000    1.83     1.83   0.25480  -9.4652
 2.80000    1.83     1.83   0.25408  -9.4646
 2.75000    1.83     1.83   0.25443  -9.4652
 2.70000    1.83     1.83   0.25439  -9.4655
 2.65000    1.83     1.83   0.25393  -9.4652
 2.60000    1.83     1.83   0.25405  -9.4653
 2.55000    1.83     1.83   0.25482  -9.4654
 2.50000    1.83     1.83   0.25446  -9.4654
 2.45000    1.83     1.83   0.25485  -9.4653
 2.40000    1.83     1.83   0.25523  -9.4652
 2.35000    1.83     1.83   0.25567  -9.4659
 2.30000    1.83     1.83   0.25475  -9.4648
 2.25000    1.83     1.83   0.25468  -9.4651
 2.20000    1.83     1.83   0.25490  -9.4651
 2.15000    1.83     1.83   0.25526  -9.4653
 2.10000    1.83     1.83   0.25510  -9.4647
 2.05000    1.83     1.83   0.25518  -9.4649
 2.00000    1.83     1.83   0.25526  -9.4642
 1.95000    1.83     1.83   0.25558  -9.4645
 1.90000    1.83     1.83   0.25579  -9.4647
 1.85000    1.83     1.83   0.25567  -9.4648
 1.80000    1.83     1.83   0.25581  -9.4646
 1.75000    1.83     1.83   0.25591  -9.4651
 1.70000    1.83     1.83   0.25595  -9.4648
 1.65000    1.83     1.83   0.25586  -9.4649
 1.60000    1.83     1.83   0.25579  -9.4644
 1.55000    1.83     1.83   0.25578  -9.4647
 1.50000    1.83     1.83   0.25609  -9.4648
 1.45000    1.83     1.83   0.25632  -9.4649
 1.40000    1.83     1.83   0.25610  -9.4646
 1.35000    1.83     1.83   0.25578  -9.4643
 1.30000    1.83     1.83   0.25620  -9.4646
 1.25000    1.83     1.83   0.25649  -9.4650
 1.20000    1.83     1.83   0.25605  -9.4644
 1.15000    1.83     1.83   0.25646  -9.4649
 1.10000    1.83     1.83   0.25610  -9.4649
 1.05000    1.83     1.83   0.25661  -9.4650
 1.00000    1.83     1.83   0.25660  -9.4656
 0.95000    1.83     1.83   0.25663  -9.4657
 0.90000    1.83     1.83   0.25650  -9.4654
 0.85000    1.83     1.83   0.25677  -9.4661
 0.80000    1.83     1.83   0.25655  -9.4657
 0.75000    1.83     1.83   0.25706  -9.4661
 0.70000    1.83     1.83   0.25690  -9.4657
 0.65000    1.83     1.83   0.25734  -9.4663
 0.60000    1.83     1.83   0.25728  -9.4664
 0.55000    1.83     1.83   0.25696  -9.4677
 0.50000    1.83     1.83   0.25752  -9.4688
 0.45000    1.83     1.83   0.25724  -9.4697
 0.40000    1.83     1.83   0.25739  -9.4705
 0.35000    1.83     1.83   0.25706  -9.4712
 0.30000    1.83     1.83   0.25716  -9.4715
 0.25000    1.83     1.83   0.25690  -9.4720
 0.20000    1.83     1.83   0.25681  -9.4722
 0.15000    1.83     1.83   0.25678  -9.4726
 0.10000    1.83     1.83   0.25632  -9.4722
 0.05000    1.83     1.83   0.25600  -9.4717
 -0.00000    1.83     1.83   0.25652  -9.4710
