 Field[T] Tsmpl[K] Tcntr[K] Signal   Mirror[MM]
 0.00000    1.81     1.81   0.42758  -9.9573
 0.05000    1.81     1.81   0.42672  -9.9567
 0.10000    1.81     1.81   0.42670  -9.9569
 0.15000    1.81     1.81   0.42531  -9.9549
 0.20000    1.81     1.81   0.42459  -9.9584
 0.25000    1.81     1.81   0.42514  -9.9605
 0.30000    1.81     1.81   0.42500  -9.9612
 0.35000    1.81     1.81   0.42540  -9.9627
 0.40000    1.81     1.81   0.42492  -9.9631
 0.45000    1.81     1.81   0.42589  -9.9643
 0.50000    1.81     1.81   0.42561  -9.9637
 0.55000    1.81     1.81   0.42560  -9.9636
 0.60000    1.81     1.81   0.42659  -9.9655
 0.65000    1.81     1.81   0.42620  -9.9645
 0.70000    1.81     1.81   0.42714  -9.9649
 0.75000    1.81     1.81   0.42696  -9.9654
 0.80000    1.81     1.81   0.42660  -9.9649
 0.85000    1.81     1.81   0.42618  -9.9640
 0.90000    1.81     1.81   0.42662  -9.9641
 0.95000    1.81     1.81   0.42666  -9.9641
 1.00000    1.81     1.81   0.42658  -9.9649
 1.05000    1.81     1.81   0.42650  -9.9646
 1.10000    1.81     1.81   0.42606  -9.9639
 1.15000    1.81     1.81   0.42612  -9.9635
 1.20000    1.81     1.81   0.42626  -9.9645
 1.25000    1.81     1.81   0.42657  -9.9657
 1.30000    1.81     1.81   0.42573  -9.9645
 1.35000    1.81     1.81   0.42639  -9.9650
 1.40000    1.81     1.81   0.42600  -9.9647
 1.45000    1.81     1.81   0.42569  -9.9639
 1.50000    1.81     1.81   0.42504  -9.9634
 1.55000    1.81     1.81   0.42490  -9.9623
 1.60000    1.81     1.81   0.42568  -9.9652
 1.65000    1.81     1.81   0.42540  -9.9640
 1.70000    1.81     1.81   0.42486  -9.9633
 1.75000    1.81     1.81   0.42484  -9.9632
 1.80000    1.81     1.81   0.42513  -9.9640
 1.85000    1.81     1.81   0.42490  -9.9642
 1.90000    1.81     1.81   0.42471  -9.9642
 1.95000    1.81     1.81   0.42451  -9.9633
 2.00000    1.81     1.81   0.42470  -9.9633
 2.05000    1.81     1.81   0.42405  -9.9619
 2.10000    1.81     1.81   0.42389  -9.9627
 2.15000    1.81     1.81   0.42427  -9.9636
 2.20000    1.81     1.81   0.42358  -9.9629
 2.25000    1.81     1.81   0.42389  -9.9634
 2.30000    1.81     1.81   0.42360  -9.9633
 2.35000    1.81     1.81   0.42330  -9.9626
 2.40000    1.81     1.81   0.42356  -9.9629
 2.45000    1.81     1.81   0.42318  -9.9625
 2.50000    1.81     1.81   0.42334  -9.9630
 2.55000    1.81     1.81   0.42293  -9.9632
 2.60000    1.81     1.81   0.42261  -9.9624
 2.65000    1.81     1.81   0.42242  -9.9620
 2.70000    1.81     1.81   0.42179  -9.9610
 2.75000    1.81     1.81   0.42189  -9.9611
 2.80000    1.81     1.81   0.42141  -9.9621
 2.85000    1.81     1.81   0.42199  -9.9619
 2.90000    1.81     1.81   0.42255  -9.9629
 2.95000    1.81     1.81   0.42196  -9.9619
 3.00000    1.81     1.81   0.42151  -9.9614
 3.05000    1.81     1.81   0.42141  -9.9614
 3.10000    1.81     1.81   0.42104  -9.9609
 3.15000    1.81     1.81   0.42110  -9.9611
 3.20000    1.81     1.81   0.42138  -9.9622
 3.25000    1.81     1.81   0.42203  -9.9629
 3.30000    1.81     1.81   0.42120  -9.9626
 3.35000    1.81     1.81   0.42137  -9.9629
 3.40000    1.81     1.81   0.42115  -9.9627
 3.45000    1.81     1.81   0.42067  -9.9624
 3.50000    1.81     1.81   0.42137  -9.9628
 3.55000    1.81     1.81   0.42039  -9.9621
 3.60000    1.81     1.81   0.42072  -9.9619
 3.65000    1.81     1.81   0.42009  -9.9609
 3.70000    1.81     1.81   0.42059  -9.9623
 3.75000    1.81     1.81   0.42045  -9.9622
 3.80000    1.81     1.81   0.42032  -9.9617
 3.85000    1.81     1.81   0.41983  -9.9620
 3.90000    1.81     1.81   0.41959  -9.9616
 3.95000    1.81     1.81   0.41905  -9.9608
 4.00000    1.81     1.81   0.41953  -9.9615
 4.05000    1.81     1.81   0.41904  -9.9614
 4.10000    1.81     1.81   0.41877  -9.9608
 4.15000    1.81     1.81   0.41916  -9.9614
 4.20000    1.81     1.81   0.41849  -9.9602
 4.25000    1.81     1.81   0.41888  -9.9611
 4.30000    1.81     1.81   0.41896  -9.9609
 4.35000    1.81     1.81   0.41894  -9.9616
 4.40000    1.81     1.81   0.41837  -9.9608
 4.45000    1.81     1.81   0.41859  -9.9616
 4.50000    1.81     1.81   0.41876  -9.9618
 4.55000    1.81     1.81   0.41836  -9.9616
 4.60000    1.81     1.81   0.41823  -9.9622
 4.65000    1.81     1.81   0.41880  -9.9619
 4.70000    1.81     1.81   0.41791  -9.9615
 4.75000    1.81     1.81   0.41808  -9.9612
 4.80000    1.81     1.81   0.41763  -9.9608
 4.85000    1.81     1.81   0.41824  -9.9618
 4.90000    1.81     1.81   0.41745  -9.9608
 4.95000    1.81     1.81   0.41743  -9.9608
 5.00000    1.81     1.81   0.41723  -9.9605
 5.05000    1.81     1.81   0.41733  -9.9607
 5.10000    1.81     1.81   0.41737  -9.9611
 5.15000    1.81     1.81   0.41719  -9.9612
 5.20000    1.81     1.81   0.41699  -9.9605
 5.25000    1.81     1.81   0.41773  -9.9615
 5.30000    1.81     1.81   0.41722  -9.9616
 5.35000    1.81     1.81   0.41705  -9.9616
 5.40000    1.81     1.81   0.41643  -9.9605
 5.45000    1.81     1.81   0.41711  -9.9619
 5.50000    1.81     1.81   0.41675  -9.9610
 5.55000    1.81     1.81   0.41651  -9.9610
 5.60000    1.81     1.81   0.41579  -9.9602
 5.65000    1.81     1.81   0.41664  -9.9608
 5.70000    1.81     1.81   0.41662  -9.9614
 5.75000    1.81     1.81   0.41572  -9.9604
 5.80000    1.81     1.81   0.41568  -9.9607
 5.85000    1.81     1.81   0.41547  -9.9598
 5.90000    1.81     1.81   0.41554  -9.9611
 5.95000    1.81     1.81   0.41550  -9.9604
 6.00000    1.81     1.81   0.41602  -9.9610
 6.05000    1.81     1.81   0.41518  -9.9603
 6.10000    1.81     1.81   0.41512  -9.9612
 6.15000    1.81     1.81   0.41544  -9.9610
 6.20000    1.81     1.81   0.41453  -9.9598
 6.25000    1.81     1.81   0.41471  -9.9606
 6.30000    1.81     1.81   0.41495  -9.9600
 6.35000    1.81     1.81   0.41501  -9.9602
 6.40000    1.81     1.81   0.41448  -9.9596
 6.45000    1.81     1.81   0.41439  -9.9596
 6.50000    1.81     1.81   0.41446  -9.9599
 6.55000    1.81     1.81   0.41454  -9.9604
 6.60000    1.81     1.81   0.41388  -9.9604
 6.65000    1.81     1.81   0.41371  -9.9589
 6.70000    1.81     1.81   0.41412  -9.9597
 6.75000    1.81     1.81   0.41426  -9.9597
 6.80000    1.81     1.81   0.41403  -9.9599
 6.85000    1.81     1.81   0.41357  -9.9585
 6.90000    1.81     1.81   0.41302  -9.9589
 6.95000    1.81     1.81   0.41384  -9.9601
 7.00000    1.81     1.81   0.41405  -9.9604
 7.00000    1.81     1.81   0.41439  -9.9615
 6.95000    1.81     1.81   0.41439  -9.9614
 6.90000    1.81     1.81   0.41367  -9.9603
 6.85000    1.81     1.81   0.41318  -9.9592
 6.80000    1.81     1.81   0.41349  -9.9597
 6.75000    1.81     1.81   0.41395  -9.9596
 6.70000    1.81     1.81   0.41377  -9.9605
 6.65000    1.81     1.81   0.41406  -9.9603
 6.60000    1.81     1.81   0.41411  -9.9604
 6.55000    1.81     1.81   0.41487  -9.9614
 6.50000    1.81     1.81   0.41411  -9.9602
 6.45000    1.81     1.81   0.41429  -9.9603
 6.40000    1.81     1.81   0.41405  -9.9588
 6.35000    1.81     1.81   0.41436  -9.9605
 6.30000    1.81     1.81   0.41423  -9.9596
 6.25000    1.81     1.81   0.41390  -9.9584
 6.20000    1.81     1.81   0.41412  -9.9587
 6.15000    1.81     1.81   0.41474  -9.9602
 6.10000    1.81     1.81   0.41491  -9.9599
 6.05000    1.81     1.81   0.41504  -9.9599
 6.00000    1.81     1.81   0.41495  -9.9592
 5.95000    1.81     1.81   0.41546  -9.9604
 5.90000    1.81     1.81   0.41438  -9.9589
 5.85000    1.81     1.81   0.41462  -9.9587
 5.80000    1.81     1.81   0.41560  -9.9606
 5.75000    1.81     1.81   0.41527  -9.9598
 5.70000    1.81     1.81   0.41571  -9.9600
 5.65000    1.81     1.81   0.41467  -9.9586
 5.60000    1.81     1.81   0.41529  -9.9597
 5.55000    1.81     1.81   0.41538  -9.9604
 5.50000    1.81     1.81   0.41478  -9.9590
 5.45000    1.81     1.81   0.41588  -9.9602
 5.40000    1.81     1.81   0.41568  -9.9599
 5.35000    1.81     1.81   0.41523  -9.9595
 5.30000    1.81     1.81   0.41550  -9.9580
 5.25000    1.81     1.81   0.41666  -9.9607
 5.20000    1.81     1.81   0.41571  -9.9590
 5.15000    1.81     1.81   0.41588  -9.9586
 5.10000    1.81     1.81   0.41607  -9.9583
 5.05000    1.81     1.81   0.41641  -9.9591
 5.00000    1.81     1.81   0.41599  -9.9582
 4.95000    1.81     1.81   0.41615  -9.9588
 4.90000    1.81     1.81   0.41675  -9.9596
 4.85000    1.81     1.81   0.41666  -9.9599
 4.80000    1.81     1.81   0.41666  -9.9593
 4.75000    1.81     1.81   0.41649  -9.9587
 4.70000    1.81     1.81   0.41689  -9.9587
 4.65000    1.81     1.81   0.41665  -9.9590
 4.60000    1.81     1.81   0.41668  -9.9588
 4.55000    1.81     1.81   0.41715  -9.9600
 4.50000    1.81     1.81   0.41665  -9.9586
 4.45000    1.81     1.81   0.41683  -9.9587
 4.40000    1.81     1.81   0.41693  -9.9591
 4.35000    1.81     1.81   0.41705  -9.9587
 4.30000    1.81     1.81   0.41692  -9.9578
 4.25000    1.81     1.81   0.41746  -9.9589
 4.20000    1.81     1.81   0.41733  -9.9581
 4.15000    1.81     1.81   0.41714  -9.9587
 4.10000    1.81     1.81   0.41674  -9.9590
 4.05000    1.81     1.81   0.41706  -9.9578
 4.00000    1.81     1.81   0.41778  -9.9583
 3.95000    1.81     1.81   0.41783  -9.9583
 3.90000    1.81     1.81   0.41825  -9.9590
 3.85000    1.81     1.81   0.41807  -9.9586
 3.80000    1.81     1.81   0.41798  -9.9584
 3.75000    1.81     1.81   0.41867  -9.9591
 3.70000    1.81     1.81   0.41820  -9.9584
 3.65000    1.81     1.81   0.41807  -9.9583
 3.60000    1.81     1.81   0.41841  -9.9585
 3.55000    1.81     1.81   0.41844  -9.9582
 3.50000    1.81     1.81   0.41831  -9.9585
 3.45000    1.81     1.81   0.41831  -9.9576
 3.40000    1.81     1.81   0.41823  -9.9573
 3.35000    1.81     1.81   0.41880  -9.9586
 3.30000    1.81     1.81   0.41884  -9.9589
 3.25000    1.81     1.81   0.41935  -9.9587
 3.20000    1.81     1.81   0.41920  -9.9588
 3.15000    1.81     1.81   0.41895  -9.9578
 3.10000    1.81     1.81   0.41906  -9.9582
 3.05000    1.81     1.81   0.41935  -9.9587
 3.00000    1.81     1.81   0.41966  -9.9590
 2.95000    1.81     1.81   0.41941  -9.9588
 2.90000    1.81     1.81   0.41977  -9.9585
 2.85000    1.81     1.81   0.41903  -9.9576
 2.80000    1.81     1.81   0.41868  -9.9568
 2.75000    1.81     1.81   0.41884  -9.9565
 2.70000    1.81     1.81   0.41911  -9.9570
 2.65000    1.81     1.81   0.41951  -9.9573
 2.60000    1.81     1.81   0.42001  -9.9585
 2.55000    1.81     1.81   0.41974  -9.9579
 2.50000    1.81     1.81   0.41954  -9.9579
 2.45000    1.81     1.81   0.42019  -9.9576
 2.40000    1.81     1.81   0.42044  -9.9574
 2.35000    1.81     1.81   0.41994  -9.9578
 2.30000    1.81     1.81   0.42074  -9.9582
 2.25000    1.81     1.81   0.42016  -9.9581
 2.20000    1.81     1.81   0.42030  -9.9580
 2.15000    1.81     1.81   0.42034  -9.9582
 2.10000    1.81     1.81   0.42010  -9.9577
 2.05000    1.81     1.81   0.42043  -9.9578
 2.00000    1.81     1.81   0.42008  -9.9580
 1.95000    1.81     1.81   0.42039  -9.9581
 1.90000    1.81     1.81   0.42039  -9.9588
 1.85000    1.81     1.81   0.41961  -9.9573
 1.80000    1.81     1.81   0.42043  -9.9575
 1.75000    1.81     1.81   0.42057  -9.9587
 1.70000    1.81     1.81   0.42020  -9.9577
 1.65000    1.81     1.81   0.42012  -9.9576
 1.60000    1.81     1.81   0.42006  -9.9575
 1.55000    1.81     1.81   0.42012  -9.9567
 1.50000    1.81     1.81   0.42044  -9.9571
 1.45000    1.81     1.81   0.42011  -9.9573
 1.40000    1.81     1.81   0.42014  -9.9572
 1.35000    1.81     1.81   0.41974  -9.9565
 1.30000    1.81     1.81   0.41996  -9.9566
 1.25000    1.81     1.81   0.42003  -9.9570
 1.20000    1.81     1.81   0.42060  -9.9572
 1.15000    1.81     1.81   0.42042  -9.9569
 1.10000    1.81     1.81   0.42022  -9.9566
 1.05000    1.81     1.81   0.42052  -9.9575
 1.00000    1.81     1.81   0.42080  -9.9575
 0.95000    1.81     1.81   0.41966  -9.9552
 0.90000    1.81     1.81   0.42041  -9.9568
 0.85000    1.81     1.81   0.42095  -9.9580
 0.80000    1.81     1.81   0.42037  -9.9571
 0.75000    1.81     1.81   0.42065  -9.9574
 0.70000    1.81     1.81   0.42003  -9.9574
 0.65000    1.81     1.81   0.41913  -9.9552
 0.60000    1.81     1.81   0.41980  -9.9571
 0.55000    1.81     1.81   0.41880  -9.9559
 0.50000    1.81     1.81   0.41828  -9.9548
 0.45000    1.81     1.81   0.41794  -9.9546
 0.40000    1.81     1.81   0.41794  -9.9546
 0.35000    1.81     1.81   0.41771  -9.9533
 0.30000    1.81     1.81   0.41812  -9.9536
 0.25000    1.81     1.81   0.41727  -9.9521
 0.20000    1.81     1.81   0.41743  -9.9505
 0.15000    1.81     1.81   0.41768  -9.9487
 0.10000    1.81     1.81   0.41862  -9.9481
 0.05000    1.81     1.81   0.41893  -9.9479
 -0.00000    1.81     1.81   0.41902  -9.9479
