 Field[T] Tsmpl[K] Tcntr[K] Signal Mirror[MM] RefSignal
 0.00000    4.46     2.97   1.88938  2.7168   1.34639
 0.05000    4.46     2.98   1.88927  2.7172   1.34740
 0.10000    4.45     2.96   1.88936  2.7168   1.34620
 0.15000    4.45     2.97   1.88996  2.7169   1.34662
 0.20000    4.45     2.97   1.89006  2.7168   1.34562
 0.25000    4.45     2.97   1.89009  2.7166   1.34594
 0.30000    4.45     3.00   1.88997  2.7165   1.34782
 0.35000    4.45     2.98   1.88990  2.7165   1.34640
 0.40000    4.45     2.99   1.88795  2.7163   1.34563
 0.45000    4.45     2.98   1.88740  2.7164   1.34745
 0.50000    4.45     2.99   1.88764  2.7163   1.34671
 0.55000    4.46     2.98   1.88630  2.7162   1.34577
 0.60000    4.46     2.98   1.88628  2.7161   1.34812
 0.65000    4.46     2.98   1.88527  2.7160   1.34717
 0.70000    4.46     2.97   1.88365  2.7160   1.34639
 0.75000    4.46     2.97   1.88242  2.7160   1.34673
 0.80000    4.46     2.97   1.88061  2.7161   1.34616
 0.85000    4.46     2.97   1.87862  2.7162   1.34735
 0.90000    4.46     2.97   1.87574  2.7162   1.34786
 0.95000    4.46     2.96   1.87351  2.7162   1.34692
 1.00000    4.45     2.97   1.86979  2.7163   1.34620
 1.05000    4.45     2.94   1.86602  2.7165   1.34663
 1.10000    4.43     2.94   1.86033  2.7165   1.34775
 1.15000    4.42     2.95   1.85335  2.7165   1.34716
 1.20000    4.42     2.95   1.84314  2.7165   1.34691
 1.25000    4.42     2.95   1.83137  2.7161   1.34688
 1.30000    4.42     2.96   1.82025  2.7147   1.34725
 1.35000    4.41     2.96   1.81638  2.7133   1.34789
 1.40000    4.41     2.93   1.82023  2.7120   1.34586
 1.45000    4.40     2.95   1.82844  2.7111   1.34761
 1.50000    4.39     2.94   1.83718  2.7106   1.34657
 1.55000    4.38     2.94   1.84441  2.7104   1.34652
 1.60000    4.38     2.97   1.84896  2.7104   1.34630
 1.65000    4.38     2.96   1.85319  2.7102   1.34805
 1.70000    4.38     2.96   1.85555  2.7102   1.34630
 1.75000    4.38     2.97   1.85818  2.7100   1.34561
 1.80000    4.38     2.97   1.86113  2.7097   1.34587
 1.85000    4.39     2.97   1.86417  2.7095   1.34618
 1.90000    4.40     2.98   1.86782  2.7097   1.34745
 1.95000    4.41     2.98   1.87046  2.7094   1.34538
 2.00000    4.41     2.99   1.87352  2.7095   1.34597
 2.05000    4.43     3.00   1.87657  2.7097   1.34634
 2.10000    4.43     2.99   1.87839  2.7097   1.34571
 2.15000    4.43     2.99   1.88036  2.7098   1.34558
 2.20000    4.44     3.01   1.88250  2.7098   1.34590
 2.25000    4.45     2.99   1.88445  2.7101   1.34587
 2.30000    4.45     3.00   1.88579  2.7101   1.34615
 2.35000    4.46     2.99   1.88757  2.7100   1.34753
 2.40000    4.46     3.00   1.88874  2.7100   1.34587
 2.45000    4.46     3.00   1.88981  2.7101   1.34567
 2.50000    4.47     3.00   1.89125  2.7101   1.34557
 2.55000    4.48     3.00   1.89175  2.7103   1.34590
 2.60000    4.49     3.00   1.89301  2.7103   1.34469
 2.65000    4.49     3.01   1.89386  2.7103   1.34399
 2.70000    4.49     3.01   1.89448  2.7105   1.34452
 2.75000    4.49     3.02   1.89475  2.7105   1.34553
 2.80000    4.49     3.02   1.89560  2.7106   1.34558
 2.85000    4.50     3.02   1.89580  2.7107   1.34550
 2.90000    4.50     3.02   1.89583  2.7105   1.34704
 2.95000    4.51     3.04   1.89617  2.7109   1.34472
 3.00000    4.53     3.02   1.89717  2.7109   1.34428
 3.05000    4.54     3.04   1.89730  2.7110   1.34606
 3.10000    4.56     3.03   1.89723  2.7112   1.34528
 3.15000    4.57     3.04   1.89676  2.7110   1.34462
 3.20000    4.59     3.05   1.89741  2.7111   1.34533
 3.25000    4.62     3.05   1.89713  2.7113   1.34457
 3.30000    4.64     3.06   1.89679  2.7113   1.34467
 3.35000    4.66     3.07   1.89721  2.7115   1.34457
 3.40000    4.68     3.05   1.89725  2.7114   1.34416
 3.45000    4.70     3.05   1.89706  2.7116   1.34507
 3.50000    4.70     3.04   1.89692  2.7117   1.34538
 3.55000    4.71     3.03   1.89577  2.7117   1.34466
 3.60000    4.72     3.03   1.89682  2.7117   1.34322
 3.65000    4.72     3.02   1.89674  2.7118   1.34622
 3.70000    4.72     3.02   1.89669  2.7119   1.34424
 3.75000    4.72     3.02   1.89614  2.7120   1.34357
 3.80000    4.73     3.01   1.89647  2.7120   1.34369
 3.85000    4.73     3.02   1.89607  2.7120   1.34346
 3.90000    4.73     3.02   1.89580  2.7122   1.34302
 3.95000    4.73     3.03   1.89487  2.7124   1.34391
 4.00000    4.73     3.01   1.89527  2.7124   1.34375
 4.00000    4.73     3.01   1.89510  2.7125   1.34339
 3.95000    4.73     3.02   1.89494  2.7124   1.34527
 3.90000    4.74     3.03   1.89514  2.7123   1.34626
 3.85000    4.76     3.05   1.89572  2.7122   1.34534
 3.80000    4.79     3.06   1.89533  2.7122   1.34494
 3.75000    4.81     3.06   1.89529  2.7122   1.34473
 3.70000    4.83     3.06   1.89536  2.7122   1.34428
 3.65000    4.86     3.06   1.89524  2.7123   1.34565
 3.60000    4.88     3.07   1.89505  2.7123   1.34573
 3.55000    4.89     3.08   1.89562  2.7122   1.34499
 3.50000    4.91     3.06   1.89577  2.7120   1.34642
 3.45000    4.93     3.06   1.89561  2.7120   1.34554
 3.40000    4.94     3.07   1.89605  2.7120   1.34634
 3.35000    4.96     3.05   1.89544  2.7121   1.34615
 3.30000    4.97     3.07   1.89409  2.7119   1.34721
 3.25000    4.97     3.05   1.89643  2.7117   1.34633
 3.20000    4.98     3.06   1.89583  2.7117   1.34719
 3.15000    4.99     3.07   1.89596  2.7117   1.34718
 3.10000    5.01     3.07   1.89608  2.7117   1.34665
 3.05000    5.02     3.06   1.89490  2.7117   1.34616
 3.00000    5.02     3.06   1.89527  2.7116   1.34767
 2.95000    5.03     3.07   1.89519  2.7114   1.34695
 2.90000    5.04     3.06   1.89497  2.7113   1.34800
 2.85000    5.05     3.07   1.89432  2.7112   1.34752
 2.80000    5.06     3.06   1.89337  2.7112   1.34903
 2.75000    5.07     3.07   1.89307  2.7113   1.34786
 2.70000    5.08     3.06   1.89271  2.7112   1.34868
 2.65000    5.09     3.07   1.89240  2.7110   1.34863
 2.60000    5.10     3.07   1.89186  2.7110   1.34957
 2.55000    5.11     3.07   1.89049  2.7109   1.34847
 2.50000    5.13     3.07   1.88990  2.7109   1.34723
 2.45000    5.14     3.06   1.88814  2.7110   1.34968
 2.40000    5.14     3.05   1.88770  2.7108   1.34969
 2.35000    5.16     3.07   1.88664  2.7109   1.34979
 2.30000    5.17     3.07   1.88473  2.7111   1.34950
 2.25000    5.17     3.04   1.88292  2.7110   1.35057
 2.20000    5.16     3.05   1.88127  2.7109   1.34938
 2.15000    5.17     3.04   1.87985  2.7108   1.34874
 2.10000    5.19     3.05   1.87788  2.7108   1.34923
 2.05000    5.24     3.07   1.87544  2.7108   1.35048
 2.00000    5.22     3.05   1.87292  2.7108   1.35091
 1.95000    5.22     3.04   1.86999  2.7107   1.35184
 1.90000    5.22     3.04   1.86693  2.7107   1.35082
 1.85000    5.23     3.03   1.86430  2.7110   1.34983
 1.80000    5.23     3.03   1.86174  2.7111   1.35054
 1.75000    5.24     3.03   1.85881  2.7113   1.35047
 1.70000    5.24     3.04   1.85636  2.7113   1.35044
 1.65000    5.26     3.02   1.85363  2.7114   1.35005
 1.60000    5.25     3.03   1.85026  2.7117   1.35262
 1.55000    5.26     3.03   1.84643  2.7116   1.35158
 1.50000    5.22     3.01   1.83953  2.7118   1.35102
 1.45000    5.21     3.03   1.83184  2.7124   1.35168
 1.40000    5.19     3.01   1.82349  2.7131   1.35165
 1.35000    5.18     3.01   1.81958  2.7143   1.35278
 1.30000    5.17     3.01   1.82174  2.7158   1.35293
 1.25000    5.18     3.03   1.83180  2.7168   1.35162
 1.20000    5.15     3.02   1.84340  2.7174   1.35286
 1.15000    5.14     2.99   1.85316  2.7175   1.35330
 1.10000    5.12     3.00   1.86094  2.7175   1.35350
 1.05000    5.10     3.00   1.86706  2.7175   1.35325
 1.00000    5.09     3.01   1.87081  2.7177   1.35235
 0.95000    5.09     2.99   1.87475  2.7177   1.35508
 0.90000    5.10     3.02   1.87766  2.7174   1.35392
 0.85000    5.10     3.02   1.88024  2.7172   1.35317
 0.80000    5.09     3.01   1.88257  2.7174   1.35164
 0.75000    5.07     3.00   1.88407  2.7175   1.35384
 0.70000    5.05     3.00   1.88606  2.7176   1.35426
 0.65000    5.03     3.00   1.88739  2.7177   1.35403
 0.60000    5.02     3.00   1.88874  2.7174   1.35410
 0.55000    5.01     3.02   1.88939  2.7175   1.35268
 0.50000    4.99     2.99   1.89039  2.7176   1.35451
 0.45000    4.95     2.98   1.89176  2.7175   1.35460
 0.40000    4.93     2.98   1.89279  2.7177   1.35468
 0.35000    4.93     2.99   1.89301  2.7180   1.35478
 0.30000    4.94     3.02   1.89362  2.7178   1.35589
 0.25000    4.93     2.99   1.89416  2.7180   1.35443
 0.20000    4.91     3.00   1.89389  2.7181   1.35459
 0.15000    4.88     2.99   1.89472  2.7181   1.35587
 0.10000    4.83     2.98   1.89478  2.7182   1.35457
 0.05000    4.82     3.01   1.89487  2.7183   1.35491
-0.00000    4.81     2.99   1.89518  2.7183   1.35532
 0.00000    4.80     2.99   1.89495  2.7184   1.35587
-0.05000    4.78     2.99   1.89536  2.7187   1.35676
-0.10000    4.76     2.98   1.89511  2.7189   1.35596
-0.15000    4.70     2.97   1.89507  2.7188   1.35659
-0.20000    4.69     2.97   1.89462  2.7190   1.35753
-0.25000    4.69     2.97   1.89453  2.7190   1.35547
-0.30000    4.69     2.98   1.89398  2.7192   1.35833
-0.35000    4.70     2.96   1.89373  2.7194   1.35706
-0.40000    4.72     2.98   1.89287  2.7197   1.35745
-0.45000    4.72     2.97   1.89245  2.7199   1.35734
-0.50000    4.71     2.96   1.89197  2.7200   1.35684
-0.55000    4.68     2.96   1.89088  2.7200   1.35689
-0.60000    4.66     2.94   1.88994  2.7202   1.35719
-0.65000    4.63     2.93   1.88959  2.7203   1.35812
-0.70000    4.59     2.91   1.88872  2.7204   1.35767
-0.75000    4.56     2.92   1.88717  2.7206   1.35853
-0.80000    4.54     2.91   1.88554  2.7208   1.35763
-0.85000    4.51     2.90   1.88406  2.7210   1.35776
-0.90000    4.49     2.90   1.88166  2.7212   1.35744
-0.95000    4.46     2.91   1.87896  2.7214   1.35814
-1.00000    4.45     2.93   1.87691  2.7214   1.35755
-1.05000    4.44     2.91   1.87253  2.7217   1.35815
-1.10000    4.43     2.92   1.86674  2.7217   1.35699
-1.15000    4.42     2.92   1.86002  2.7219   1.35790
-1.20000    4.41     2.92   1.85063  2.7219   1.35805
-1.25000    4.41     2.93   1.83929  2.7215   1.35953
-1.30000    4.41     2.92   1.82747  2.7208   1.35842
-1.35000    4.40     2.93   1.82554  2.7192   1.35935
-1.40000    4.39     2.94   1.82938  2.7179   1.35770
-1.45000    4.39     2.93   1.83766  2.7169   1.35878
-1.50000    4.39     2.93   1.84713  2.7165   1.35873
-1.55000    4.39     2.92   1.85458  2.7165   1.35993
-1.60000    4.38     2.93   1.86036  2.7163   1.35889
-1.65000    4.38     2.93   1.86437  2.7162   1.35935
-1.70000    4.38     2.93   1.86804  2.7162   1.35927
-1.75000    4.38     2.93   1.87108  2.7161   1.35933
-1.80000    4.38     2.94   1.87427  2.7161   1.35871
-1.85000    4.38     2.94   1.87819  2.7158   1.35987
-1.90000    4.38     2.94   1.88156  2.7159   1.36168
-1.95000    4.38     2.95   1.88471  2.7158   1.36090
-2.00000    4.38     2.95   1.88783  2.7160   1.36078
-2.05000    4.39     2.96   1.89127  2.7158   1.36139
-2.10000    4.39     2.97   1.89429  2.7158   1.36100
-2.15000    4.40     2.97   1.89656  2.7159   1.35959
-2.20000    4.40     2.97   1.89941  2.7160   1.36291
-2.25000    4.40     2.99   1.90173  2.7161   1.36180
-2.30000    4.41     2.98   1.90367  2.7160   1.36079
-2.35000    4.41     2.99   1.90566  2.7161   1.36012
-2.40000    4.43     2.98   1.90782  2.7164   1.36145
-2.45000    4.43     2.99   1.90967  2.7162   1.36170
-2.50000    4.43     2.99   1.91171  2.7164   1.36159
-2.55000    4.45     3.00   1.91325  2.7164   1.36136
-2.60000    4.46     2.99   1.91389  2.7164   1.36163
-2.65000    4.47     2.99   1.91606  2.7167   1.36244
-2.70000    4.48     3.01   1.91738  2.7169   1.36231
-2.75000    4.49     2.99   1.91892  2.7168   1.36225
-2.80000    4.51     2.99   1.91907  2.7168   1.36196
-2.85000    4.52     3.01   1.92116  2.7166   1.36223
-2.90000    4.53     3.00   1.92182  2.7169   1.36128
-2.95000    4.55     3.00   1.92308  2.7170   1.36265
-3.00000    4.56     3.01   1.92434  2.7170   1.36126
-3.05000    4.59     3.02   1.92524  2.7172   1.36316
-3.10000    4.60     3.01   1.92630  2.7171   1.36221
-3.15000    4.62     3.02   1.92684  2.7172   1.36429
-3.20000    4.64     3.02   1.92767  2.7174   1.36274
-3.25000    4.66     3.03   1.92815  2.7174   1.36200
-3.30000    4.68     3.03   1.92893  2.7176   1.36334
-3.35000    4.70     3.03   1.92988  2.7175   1.36217
-3.40000    4.72     3.02   1.93009  2.7177   1.36343
-3.45000    4.73     3.03   1.93059  2.7177   1.36209
-3.50000    4.75     3.03   1.93097  2.7178   1.36303
-3.55000    4.77     3.05   1.93184  2.7179   1.36319
-3.60000    4.79     3.02   1.93191  2.7180   1.36434
-3.65000    4.80     3.03   1.93339  2.7179   1.36347
-3.70000    4.81     3.03   1.93353  2.7179   1.36304
-3.75000    4.82     3.03   1.93418  2.7181   1.36375
-3.80000    4.84     3.04   1.93304  2.7182   1.36209
-3.85000    4.85     3.03   1.93481  2.7183   1.36464
-3.90000    4.86     3.02   1.93544  2.7184   1.36286
-3.95000    4.87     3.03   1.93610  2.7183   1.36352
-4.00000    4.88     3.02   1.93614  2.7184   1.36251
-4.00000    4.88     3.03   1.93668  2.7184   1.36248
-3.95000    4.89     3.02   1.93562  2.7182   1.36407
-3.90000    4.90     3.02   1.93527  2.7184   1.36393
-3.85000    4.91     3.04   1.93458  2.7183   1.36310
-3.80000    4.92     3.03   1.93324  2.7183   1.36296
-3.75000    4.93     3.04   1.93279  2.7181   1.36551
-3.70000    4.93     3.04   1.93215  2.7181   1.36327
-3.65000    4.93     3.04   1.93155  2.7181   1.36413
-3.60000    4.93     3.04   1.93094  2.7181   1.36280
-3.55000    4.93     3.05   1.93048  2.7179   1.36302
-3.50000    4.94     3.04   1.92938  2.7179   1.36366
-3.45000    4.94     3.05   1.92863  2.7180   1.36277
-3.40000    4.94     3.04   1.92771  2.7179   1.36323
-3.35000    4.94     3.05   1.92636  2.7180   1.36106
-3.30000    4.94     3.05   1.92614  2.7181   1.36337
-3.25000    4.95     3.04   1.92498  2.7180   1.36263
-3.20000    4.95     3.06   1.92439  2.7180   1.36305
-3.15000    4.96     3.05   1.92354  2.7178   1.36135
-3.10000    4.96     3.05   1.92314  2.7177   1.36313
-3.05000    4.97     3.07   1.92148  2.7175   1.36343
-3.00000    4.98     3.07   1.92050  2.7176   1.36214
-2.95000    4.99     3.06   1.92037  2.7174   1.36128
-2.90000    5.00     3.07   1.91888  2.7174   1.36172
-2.85000    5.01     3.06   1.91763  2.7171   1.36267
-2.80000    4.99     3.06   1.91652  2.7170   1.36212
-2.75000    5.00     3.06   1.91522  2.7170   1.36241
-2.70000    5.02     3.06   1.91423  2.7170   1.36105
-2.65000    5.04     3.07   1.91198  2.7170   1.36226
-2.60000    5.06     3.06   1.91054  2.7169   1.36177
-2.55000    5.08     3.06   1.90923  2.7168   1.36129
-2.50000    5.09     3.06   1.90724  2.7169   1.36144
-2.45000    5.10     3.06   1.90533  2.7168   1.36088
-2.40000    5.11     3.07   1.90365  2.7168   1.35937
-2.35000    5.13     3.06   1.90189  2.7168   1.36018
-2.30000    5.14     3.06   1.90003  2.7167   1.35973
-2.25000    5.15     3.05   1.89733  2.7167   1.36163
-2.20000    5.17     3.05   1.89549  2.7164   1.36049
-2.15000    5.17     3.06   1.89300  2.7167   1.36160
-2.10000    5.18     3.06   1.89042  2.7166   1.36188
-2.05000    5.19     3.05   1.88775  2.7166   1.36001
-2.00000    5.20     3.04   1.88377  2.7165   1.35816
-1.95000    5.21     3.04   1.88092  2.7164   1.36012
-1.90000    5.22     3.05   1.87819  2.7165   1.36030
-1.85000    5.24     3.04   1.87518  2.7167   1.35936
-1.80000    5.25     3.04   1.87218  2.7168   1.35868
-1.75000    5.26     3.03   1.86944  2.7168   1.35975
-1.70000    5.27     3.05   1.86636  2.7168   1.36015
-1.65000    5.28     3.02   1.86411  2.7170   1.35890
-1.60000    5.29     3.02   1.86001  2.7169   1.36040
-1.55000    5.29     3.02   1.85413  2.7170   1.36071
-1.50000    5.28     3.02   1.84828  2.7169   1.35935
-1.45000    5.28     3.03   1.83896  2.7175   1.35922
-1.40000    5.27     3.01   1.83011  2.7180   1.35928
-1.35000    5.25     3.01   1.82555  2.7192   1.35935
-1.30000    5.24     3.01   1.82842  2.7206   1.35685
-1.25000    5.22     3.01   1.83767  2.7216   1.35852
-1.20000    5.22     3.02   1.84834  2.7220   1.35767
-1.15000    5.20     3.00   1.85813  2.7223   1.35787
-1.10000    5.20     3.01   1.86487  2.7224   1.35775
-1.05000    5.18     3.00   1.87016  2.7221   1.35924
-1.00000    5.16     3.00   1.87406  2.7221   1.35837
-0.95000    5.17     3.02   1.87658  2.7220   1.35808
-0.90000    5.14     2.99   1.87988  2.7216   1.35833
-0.85000    5.14     3.01   1.88224  2.7214   1.35782
-0.80000    5.11     3.00   1.88416  2.7212   1.35905
-0.75000    5.11     3.01   1.88552  2.7211   1.35741
-0.70000    5.10     3.01   1.88638  2.7212   1.35744
-0.65000    5.08     2.99   1.88784  2.7212   1.35752
-0.60000    5.08     3.00   1.88874  2.7210   1.35628
-0.55000    5.07     3.00   1.88993  2.7208   1.35767
-0.50000    5.07     2.99   1.89093  2.7208   1.35723
-0.45000    5.07     3.00   1.89159  2.7207   1.35787
-0.40000    5.05     2.99   1.89203  2.7205   1.35581
-0.35000    5.04     3.01   1.89361  2.7203   1.35646
-0.30000    5.04     2.99   1.89368  2.7202   1.35616
-0.25000    5.03     2.99   1.89407  2.7201   1.35813
-0.20000    5.00     2.99   1.89455  2.7201   1.35474
-0.15000    4.97     2.98   1.89456  2.7200   1.35610
-0.10000    4.94     2.99   1.89555  2.7199   1.35702
-0.05000    4.91     2.97   1.89589  2.7199   1.35706
 0.00000    4.87     2.97   1.89538  2.7197   1.35613
