 Field[T] Tsmpl[K] Tcntr[K] Signal Mirror[MM] RefSignal
 0.00000    4.82     2.84   0.96868  2.6677   1.60602
 0.05000    4.78     2.86   0.96878  2.6677   1.60493
 0.10000    4.74     2.87   0.96851  2.6676   1.60542
 0.15000    4.72     2.89   0.96844  2.6674   1.60423
 0.20000    4.71     2.90   0.96785  2.6672   1.60417
 0.25000    4.70     2.90   0.96767  2.6673   1.60364
 0.30000    4.69     2.91   0.96659  2.6671   1.60400
 0.35000    4.69     2.92   0.96593  2.6672   1.60331
 0.40000    4.69     2.92   0.96566  2.6671   1.60148
 0.45000    4.68     2.92   0.96527  2.6668   1.60248
 0.50000    4.67     2.92   0.96454  2.6669   1.60145
 0.55000    4.68     2.92   0.96442  2.6670   1.60191
 0.60000    4.66     2.91   0.96319  2.6670   1.60161
 0.65000    4.65     2.91   0.96236  2.6668   1.59990
 0.70000    4.64     2.91   0.96133  2.6668   1.59979
 0.75000    4.64     2.91   0.96035  2.6668   1.59973
 0.80000    4.62     2.90   0.95926  2.6666   1.59824
 0.85000    4.61     2.90   0.95763  2.6667   1.59786
 0.90000    4.60     2.89   0.95611  2.6665   1.59873
 0.95000    4.60     2.89   0.95409  2.6668   1.59833
 1.00000    4.59     2.89   0.95167  2.6671   1.59931
 1.05000    4.58     2.90   0.94838  2.6671   1.59895
 1.10000    4.57     2.89   0.94422  2.6670   1.59575
 1.15000    4.56     2.90   0.93896  2.6666   1.59732
 1.20000    4.55     2.89   0.93280  2.6659   1.59803
 1.25000    4.53     2.89   0.92880  2.6647   1.59756
 1.30000    4.50     2.89   0.92821  2.6632   1.59666
 1.35000    4.47     2.89   0.93075  2.6620   1.59603
 1.40000    4.46     2.89   0.93478  2.6611   1.59790
 1.45000    4.45     2.89   0.93890  2.6605   1.59650
 1.50000    4.45     2.91   0.94144  2.6603   1.59570
 1.55000    4.45     2.91   0.94348  2.6605   1.59650
 1.60000    4.45     2.90   0.94516  2.6603   1.59543
 1.65000    4.44     2.90   0.94642  2.6601   1.59645
 1.70000    4.42     2.92   0.94810  2.6598   1.59525
 1.75000    4.42     2.91   0.94938  2.6599   1.59383
 1.80000    4.41     2.93   0.95090  2.6597   1.59488
 1.85000    4.41     2.93   0.95255  2.6594   1.59512
 1.90000    4.41     2.93   0.95373  2.6596   1.59552
 1.95000    4.42     2.93   0.95517  2.6594   1.59519
 2.00000    4.42     2.95   0.95641  2.6595   1.59417
 2.05000    4.43     2.96   0.95766  2.6596   1.59443
 2.10000    4.44     2.96   0.95827  2.6597   1.59433
 2.15000    4.45     2.96   0.95910  2.6600   1.59557
 2.20000    4.45     2.96   0.95949  2.6597   1.59460
 2.25000    4.47     2.98   0.96069  2.6593   1.59448
 2.30000    4.48     2.98   0.96102  2.6595   1.59658
 2.35000    4.49     2.99   0.96205  2.6596   1.59329
 2.40000    4.51     2.99   0.96277  2.6594   1.59264
 2.45000    4.52     2.98   0.96319  2.6595   1.59393
 2.50000    4.52     2.99   0.96337  2.6599   1.59286
 2.55000    4.53     3.01   0.96394  2.6599   1.59295
 2.60000    4.54     2.99   0.96440  2.6599   1.59458
 2.65000    4.55     2.99   0.96478  2.6601   1.59309
 2.70000    4.55     3.01   0.96504  2.6602   1.59371
 2.75000    4.55     3.00   0.96518  2.6601   1.59296
 2.80000    4.54     2.99   0.96535  2.6600   1.59116
 2.85000    4.53     3.00   0.96523  2.6604   1.59298
 2.90000    4.53     3.00   0.96512  2.6606   1.59371
 2.95000    4.52     3.01   0.96461  2.6606   1.59293
 3.00000    4.52     3.01   0.96517  2.6605   1.59329
 3.05000    4.52     3.00   0.96524  2.6605   1.59216
 3.10000    4.52     3.01   0.96551  2.6605   1.59410
 3.15000    4.52     3.00   0.96473  2.6606   1.59114
 3.20000    4.51     3.00   0.96509  2.6607   1.59401
 3.25000    4.51     3.01   0.96515  2.6609   1.59204
 3.30000    4.51     3.03   0.96566  2.6609   1.59137
 3.35000    4.52     3.01   0.96552  2.6609   1.59341
 3.40000    4.52     3.01   0.96525  2.6610   1.59229
 3.45000    4.52     3.01   0.96476  2.6611   1.59104
 3.50000    4.53     3.01   0.96503  2.6608   1.59064
 3.55000    4.53     3.02   0.96470  2.6609   1.59102
 3.60000    4.54     3.02   0.96460  2.6610   1.59218
 3.65000    4.55     3.02   0.96432  2.6610   1.59118
 3.70000    4.56     3.02   0.96385  2.6610   1.58924
 3.75000    4.58     3.03   0.96364  2.6610   1.59003
 3.80000    4.59     3.02   0.96401  2.6611   1.58968
 3.85000    4.60     3.03   0.96381  2.6613   1.59006
 3.90000    4.61     3.02   0.96353  2.6612   1.58935
 3.95000    4.61     3.03   0.96344  2.6612   1.59013
 4.00000    4.63     3.03   0.96368  2.6612   1.59094
 4.05000    4.64     3.03   0.96361  2.6613   1.58960
 4.10000    4.65     3.03   0.96328  2.6614   1.59031
 4.15000    4.66     3.02   0.96296  2.6614   1.58951
 4.20000    4.68     3.02   0.96288  2.6616   1.58950
 4.25000    4.68     3.02   0.96286  2.6616   1.59083
 4.30000    4.69     3.03   0.96261  2.6616   1.58938
 4.35000    4.70     3.02   0.96243  2.6615   1.58876
 4.40000    4.71     3.02   0.96248  2.6616   1.58817
 4.45000    4.72     3.02   0.96232  2.6617   1.59054
 4.50000    4.74     3.02   0.96206  2.6619   1.58855
 4.55000    4.75     3.02   0.96178  2.6620   1.58944
 4.60000    4.76     3.01   0.96252  2.6619   1.58776
 4.65000    4.77     3.02   0.96188  2.6615   1.58908
 4.70000    4.77     3.02   0.96169  2.6616   1.58798
 4.75000    4.76     3.02   0.96113  2.6614   1.58844
 4.80000    4.75     3.01   0.96095  2.6614   1.58944
 4.85000    4.74     3.01   0.96054  2.6618   1.58821
 4.90000    4.72     3.01   0.96053  2.6619   1.58975
 4.95000    4.72     3.01   0.96021  2.6620   1.58845
 5.00000    4.71     3.02   0.96097  2.6622   1.58818
