 Field[T] Tsmpl[K] Tcntr[K] Signal Mirror[MM] RefSignal
 0.00000    4.70     2.89   1.12117  3.3019   2.71272
 0.05000    4.68     2.91   1.12225  3.3019   2.71341
 0.10000    4.67     2.90   1.12127  3.3016   2.71447
 0.15000    4.66     2.90   1.12117  3.3015   2.71200
 0.20000    4.65     2.91   1.12018  3.3014   2.71088
 0.25000    4.64     2.94   1.11998  3.3015   2.70989
 0.30000    4.64     2.92   1.11993  3.3011   2.70953
 0.35000    4.63     2.92   1.11932  3.3010   2.70966
 0.40000    4.65     2.95   1.11905  3.3009   2.70888
 0.45000    4.65     2.93   1.11908  3.3007   2.70708
 0.50000    4.62     2.94   1.11901  3.3009   2.70739
 0.55000    4.61     2.96   1.11937  3.3007   2.70925
 0.60000    4.59     2.93   1.11927  3.3007   2.71003
 0.65000    4.58     2.93   1.11855  3.3005   2.70833
 0.70000    4.57     2.94   1.11822  3.3004   2.70828
 0.75000    4.56     2.94   1.11750  3.3006   2.70775
 0.80000    4.55     2.96   1.11743  3.3004   2.70622
 0.85000    4.55     2.94   1.11669  3.3005   2.70562
 0.90000    4.54     2.95   1.11614  3.3005   2.70594
 0.95000    4.53     2.95   1.11593  3.3004   2.70439
 1.00000    4.53     2.95   1.11502  3.3002   2.70584
 1.05000    4.53     2.94   1.11471  3.3003   2.70610
 1.10000    4.51     2.95   1.11385  3.3004   2.70521
 1.15000    4.51     2.94   1.11364  3.3003   2.70515
 1.20000    4.49     2.92   1.11332  3.3005   2.70750
 1.25000    4.48     2.93   1.11342  3.3001   2.70978
 1.30000    4.47     2.93   1.11225  3.3001   2.70746
 1.35000    4.47     2.93   1.11046  3.3002   2.70678
 1.40000    4.46     2.95   1.10895  3.3005   2.70557
 1.45000    4.46     2.94   1.10708  3.3005   2.70537
 1.50000    4.46     2.94   1.10446  3.3004   2.70664
 1.55000    4.46     2.94   1.10151  3.3006   2.70477
 1.60000    4.45     2.94   1.09763  3.3007   2.70549
 1.65000    4.45     2.96   1.09383  3.3003   2.70750
 1.70000    4.46     2.96   1.09226  3.2994   2.71019
 1.75000    4.47     2.95   1.09128  3.2988   2.70641
 1.80000    4.47     2.96   1.09269  3.2985   2.70509
 1.85000    4.48     2.94   1.09457  3.2982   2.70387
 1.90000    4.47     2.97   1.09679  3.2979   2.70352
 1.95000    4.47     2.95   1.09831  3.2980   2.70327
 2.00000    4.47     2.96   1.09962  3.2981   2.70095
 2.05000    4.47     2.96   1.10039  3.2980   2.70113
 2.10000    4.47     2.97   1.10143  3.2979   2.70206
 2.15000    4.47     2.97   1.10148  3.2980   2.70148
 2.20000    4.47     2.99   1.10062  3.2978   2.70128
 2.25000    4.47     2.98   1.10021  3.2980   2.69715
 2.30000    4.47     2.99   1.09993  3.2978   2.69730
 2.35000    4.47     2.98   1.10041  3.2974   2.69835
 2.40000    4.46     2.98   1.10073  3.2974   2.69782
 2.45000    4.45     2.99   1.10082  3.2977   2.69728
 2.50000    4.45     2.98   1.10199  3.2978   2.69813
 2.55000    4.45     2.99   1.10332  3.2978   2.69894
 2.60000    4.45     3.00   1.10434  3.2978   2.70013
 2.65000    4.45     3.00   1.10513  3.2978   2.70153
 2.70000    4.45     3.00   1.10512  3.2976   2.69897
 2.75000    4.46     3.00   1.10521  3.2974   2.69854
 2.80000    4.46     3.00   1.10503  3.2974   2.69890
 2.85000    4.47     3.00   1.10534  3.2976   2.69862
 2.90000    4.48     3.00   1.10574  3.2975   2.69384
 2.95000    4.49     3.01   1.10553  3.2977   2.69503
 3.00000    4.49     3.00   1.10549  3.2975   2.69539
 3.05000    4.50     3.01   1.10613  3.2976   2.69636
 3.10000    4.51     3.01   1.10714  3.2977   2.69802
 3.15000    4.51     3.02   1.10730  3.2977   2.69590
 3.20000    4.52     3.02   1.10660  3.2979   2.69482
 3.25000    4.54     3.02   1.10663  3.2979   2.69560
 3.30000    4.55     3.03   1.10635  3.2978   2.69485
 3.35000    4.56     3.03   1.10630  3.2978   2.69460
 3.40000    4.58     3.03   1.10649  3.2980   2.69384
 3.45000    4.60     3.03   1.10616  3.2981   2.69281
 3.50000    4.62     3.04   1.10608  3.2981   2.69305
 3.55000    4.64     3.04   1.10627  3.2980   2.69324
 3.60000    4.66     3.05   1.10619  3.2979   2.69138
 3.65000    4.69     3.04   1.10652  3.2980   2.69211
 3.70000    4.71     3.04   1.10664  3.2979   2.69249
 3.75000    4.73     3.05   1.10661  3.2980   2.69331
 3.80000    4.75     3.05   1.10698  3.2982   2.69286
 3.85000    4.77     3.05   1.10752  3.2981   2.69517
 3.90000    4.79     3.05   1.10709  3.2980   2.69263
 3.95000    4.80     3.05   1.10643  3.2980   2.68996
 4.00000    4.81     3.04   1.10619  3.2982   2.68984
