 Field[T] Tsmpl[K] Tcntr[K] Signal   Mirror[MM]
 0.00000    1.84     1.84   0.15794  -18.0028
 0.05000    1.84     1.84   0.15752  -18.0089
 0.10000    1.84     1.84   0.15964  -18.0100
 0.15000    1.84     1.84   0.15940  -18.0168
 0.20000    1.84     1.84   0.16113  -18.0160
 0.25000    1.84     1.84   0.16197  -18.0165
 0.30000    1.84     1.84   0.16250  -18.0164
 0.35000    1.84     1.84   0.16332  -18.0149
 0.40000    1.84     1.84   0.16396  -18.0133
 0.45000    1.84     1.84   0.16469  -18.0098
 0.50000    1.84     1.84   0.16499  -18.0048
 0.55000    1.84     1.84   0.16559  -18.0022
 0.60000    1.84     1.84   0.16623  -17.9975
 0.65000    1.84     1.84   0.16704  -17.9967
 0.70000    1.84     1.84   0.16705  -17.9925
 0.75000    1.84     1.84   0.16752  -17.9872
 0.80000    1.84     1.84   0.16733  -17.9828
 0.85000    1.84     1.84   0.16725  -17.9800
 0.90000    1.84     1.84   0.16716  -17.9773
 0.95000    1.84     1.84   0.16713  -17.9735
 1.00000    1.84     1.84   0.16698  -17.9724
 1.05000    1.84     1.84   0.16685  -17.9701
 1.10000    1.84     1.84   0.16683  -17.9676
 1.15000    1.84     1.84   0.16703  -17.9678
 1.20000    1.84     1.84   0.16704  -17.9664
 1.25000    1.84     1.84   0.16714  -17.9641
 1.30000    1.84     1.84   0.16679  -17.9613
 1.35000    1.84     1.84   0.16687  -17.9631
 1.40000    1.84     1.84   0.16697  -17.9625
 1.45000    1.84     1.84   0.16674  -17.9606
 1.50000    1.84     1.84   0.16689  -17.9610
 1.55000    1.84     1.84   0.16663  -17.9596
 1.60000    1.84     1.84   0.16696  -17.9592
 1.65000    1.84     1.84   0.16675  -17.9589
 1.70000    1.84     1.84   0.16662  -17.9583
 1.75000    1.84     1.84   0.16639  -17.9576
 1.80000    1.84     1.84   0.16635  -17.9559
 1.85000    1.84     1.84   0.16629  -17.9544
 1.90000    1.84     1.84   0.16596  -17.9560
 1.95000    1.84     1.84   0.16633  -17.9567
 2.00000    1.84     1.84   0.16630  -17.9569
 2.05000    1.84     1.84   0.16632  -17.9567
 2.10000    1.84     1.84   0.16639  -17.9541
 2.15000    1.84     1.84   0.16623  -17.9546
 2.20000    1.84     1.84   0.16645  -17.9533
 2.25000    1.84     1.84   0.16650  -17.9532
 2.30000    1.84     1.84   0.16628  -17.9522
 2.35000    1.84     1.84   0.16643  -17.9529
 2.40000    1.84     1.84   0.16632  -17.9522
 2.45000    1.84     1.84   0.16634  -17.9508
 2.50000    1.84     1.84   0.16633  -17.9520
 2.55000    1.84     1.84   0.16617  -17.9508
 2.60000    1.84     1.84   0.16618  -17.9507
 2.65000    1.84     1.84   0.16585  -17.9492
 2.70000    1.84     1.84   0.16611  -17.9494
 2.75000    1.84     1.84   0.16534  -17.9405
 2.80000    1.84     1.84   0.16596  -17.9497
 2.85000    1.84     1.84   0.16549  -17.9446
 2.90000    1.84     1.84   0.16534  -17.9439
 2.95000    1.84     1.84   0.16610  -17.9484
 3.00000    1.84     1.84   0.16574  -17.9467
 3.05000    1.84     1.84   0.16581  -17.9463
 3.10000    1.84     1.84   0.16579  -17.9484
 3.15000    1.84     1.84   0.16583  -17.9485
 3.20000    1.84     1.84   0.16542  -17.9473
 3.25000    1.84     1.84   0.16581  -17.9435
 3.30000    1.84     1.84   0.16580  -17.9443
 3.35000    1.84     1.84   0.16568  -17.9433
 3.40000    1.84     1.84   0.16583  -17.9436
 3.45000    1.84     1.84   0.16572  -17.9437
 3.50000    1.84     1.84   0.16586  -17.9442
 3.55000    1.84     1.84   0.16583  -17.9438
 3.60000    1.84     1.84   0.16590  -17.9440
 3.65000    1.84     1.84   0.16579  -17.9441
 3.70000    1.84     1.84   0.16586  -17.9446
 3.75000    1.84     1.84   0.16604  -17.9448
 3.80000    1.84     1.84   0.16572  -17.9446
 3.85000    1.84     1.84   0.16552  -17.9430
 3.90000    1.84     1.84   0.16564  -17.9434
 3.95000    1.84     1.84   0.16557  -17.9431
 4.00000    1.84     1.84   0.16566  -17.9443
 4.05000    1.84     1.84   0.16555  -17.9451
 4.10000    1.84     1.84   0.16534  -17.9439
 4.15000    1.84     1.84   0.16554  -17.9431
 4.20000    1.84     1.84   0.16552  -17.9433
 4.25000    1.84     1.84   0.16541  -17.9451
 4.30000    1.84     1.84   0.16569  -17.9442
 4.35000    1.84     1.84   0.16569  -17.9433
 4.40000    1.84     1.84   0.16563  -17.9439
 4.45000    1.84     1.84   0.16549  -17.9444
 4.50000    1.84     1.84   0.16533  -17.9442
 4.55000    1.84     1.84   0.16535  -17.9436
 4.60000    1.84     1.84   0.16522  -17.9427
 4.65000    1.84     1.84   0.16502  -17.9433
 4.70000    1.84     1.84   0.16522  -17.9433
 4.75000    1.84     1.84   0.16541  -17.9431
 4.80000    1.84     1.84   0.16528  -17.9421
 4.85000    1.84     1.84   0.16539  -17.9422
 4.90000    1.84     1.84   0.16563  -17.9433
 4.95000    1.84     1.84   0.16549  -17.9426
 5.00000    1.84     1.84   0.16517  -17.9424
 5.05000    1.84     1.84   0.16510  -17.9422
 5.10000    1.84     1.84   0.16525  -17.9421
 5.15000    1.84     1.84   0.16538  -17.9415
 5.20000    1.84     1.84   0.16510  -17.9423
 5.25000    1.84     1.84   0.16512  -17.9429
 5.30000    1.84     1.84   0.16525  -17.9427
 5.35000    1.84     1.84   0.16498  -17.9432
 5.40000    1.84     1.84   0.16496  -17.9421
 5.45000    1.84     1.84   0.16502  -17.9429
 5.50000    1.84     1.84   0.16510  -17.9430
 5.55000    1.84     1.84   0.16503  -17.9425
 5.60000    1.84     1.84   0.16507  -17.9419
 5.65000    1.84     1.84   0.16506  -17.9422
 5.70000    1.84     1.84   0.16484  -17.9421
 5.75000    1.84     1.84   0.16476  -17.9421
 5.80000    1.84     1.84   0.16494  -17.9441
 5.85000    1.84     1.84   0.16462  -17.9421
 5.90000    1.84     1.84   0.16477  -17.9433
 5.95000    1.84     1.84   0.16464  -17.9432
 6.00000    1.84     1.84   0.16486  -17.9429
 6.05000    1.84     1.84   0.16480  -17.9425
 6.10000    1.84     1.84   0.16480  -17.9431
 6.15000    1.84     1.84   0.16462  -17.9433
 6.20000    1.84     1.84   0.16492  -17.9437
 6.25000    1.84     1.84   0.16478  -17.9429
 6.30000    1.84     1.84   0.16469  -17.9426
 6.35000    1.84     1.84   0.16467  -17.9436
 6.40000    1.84     1.84   0.16455  -17.9442
 6.45000    1.84     1.84   0.16447  -17.9420
 6.50000    1.84     1.84   0.16455  -17.9435
 6.55000    1.84     1.84   0.16464  -17.9436
 6.60000    1.84     1.84   0.16437  -17.9426
 6.65000    1.84     1.84   0.16447  -17.9374
 6.70000    1.84     1.84   0.16439  -17.9378
 6.75000    1.84     1.84   0.16417  -17.9384
 6.80000    1.84     1.84   0.16409  -17.9384
 6.85000    1.84     1.84   0.16412  -17.9387
 6.90000    1.84     1.84   0.16407  -17.9390
 6.95000    1.84     1.84   0.16431  -17.9394
 7.00000    1.84     1.84   0.16422  -17.9380
 7.00000    1.84     1.84   0.16394  -17.9365
 6.95000    1.84     1.84   0.16400  -17.9366
 6.90000    1.84     1.84   0.16413  -17.9375
 6.85000    1.84     1.84   0.16438  -17.9378
 6.80000    1.84     1.84   0.16417  -17.9372
 6.75000    1.84     1.84   0.16408  -17.9371
 6.70000    1.84     1.84   0.16414  -17.9371
 6.65000    1.84     1.84   0.16431  -17.9374
 6.60000    1.84     1.84   0.16407  -17.9365
 6.55000    1.84     1.84   0.16438  -17.9380
 6.50000    1.84     1.84   0.16444  -17.9377
 6.45000    1.84     1.84   0.16448  -17.9368
 6.40000    1.84     1.84   0.16438  -17.9367
 6.35000    1.84     1.84   0.16425  -17.9369
 6.30000    1.84     1.84   0.16450  -17.9376
 6.25000    1.84     1.84   0.16439  -17.9371
 6.20000    1.84     1.84   0.16464  -17.9358
 6.15000    1.84     1.84   0.16453  -17.9374
 6.10000    1.84     1.84   0.16463  -17.9384
 6.05000    1.84     1.84   0.16463  -17.9381
 6.00000    1.84     1.84   0.16465  -17.9376
 5.95000    1.84     1.84   0.16477  -17.9383
 5.90000    1.84     1.84   0.16488  -17.9369
 5.85000    1.84     1.84   0.16487  -17.9363
 5.80000    1.84     1.84   0.16481  -17.9348
 5.75000    1.84     1.84   0.16478  -17.9355
 5.70000    1.84     1.84   0.16490  -17.9353
 5.65000    1.84     1.84   0.16479  -17.9360
 5.60000    1.84     1.84   0.16490  -17.9365
 5.55000    1.84     1.84   0.16528  -17.9367
 5.50000    1.84     1.84   0.16508  -17.9364
 5.45000    1.84     1.84   0.16526  -17.9364
 5.40000    1.84     1.84   0.16518  -17.9348
 5.35000    1.84     1.84   0.16521  -17.9346
 5.30000    1.84     1.84   0.16533  -17.9341
 5.25000    1.84     1.84   0.16530  -17.9349
 5.20000    1.84     1.84   0.16525  -17.9350
 5.15000    1.84     1.84   0.16537  -17.9337
 5.10000    1.84     1.84   0.16536  -17.9339
 5.05000    1.84     1.84   0.16553  -17.9339
 5.00000    1.84     1.84   0.16541  -17.9331
 4.95000    1.84     1.84   0.16548  -17.9342
 4.90000    1.84     1.84   0.16541  -17.9326
 4.85000    1.84     1.84   0.16542  -17.9340
 4.80000    1.84     1.84   0.16549  -17.9340
 4.75000    1.84     1.84   0.16578  -17.9341
 4.70000    1.84     1.84   0.16594  -17.9356
 4.65000    1.84     1.84   0.16588  -17.9346
 4.60000    1.84     1.84   0.16599  -17.9352
 4.55000    1.84     1.84   0.16589  -17.9340
 4.50000    1.84     1.84   0.16571  -17.9351
 4.45000    1.84     1.84   0.16603  -17.9354
 4.40000    1.84     1.84   0.16602  -17.9335
 4.35000    1.84     1.84   0.16608  -17.9347
 4.30000    1.84     1.84   0.16595  -17.9356
 4.25000    1.84     1.84   0.16610  -17.9347
 4.20000    1.84     1.84   0.16619  -17.9348
 4.15000    1.84     1.84   0.16625  -17.9345
 4.10000    1.84     1.84   0.16608  -17.9331
 4.05000    1.84     1.84   0.16607  -17.9351
 4.00000    1.84     1.84   0.16618  -17.9343
 3.95000    1.84     1.84   0.16622  -17.9348
 3.90000    1.84     1.84   0.16628  -17.9334
 3.85000    1.84     1.84   0.16625  -17.9346
 3.80000    1.84     1.84   0.16649  -17.9342
 3.75000    1.84     1.84   0.16667  -17.9328
 3.70000    1.84     1.84   0.16670  -17.9346
 3.65000    1.84     1.84   0.16670  -17.9333
 3.60000    1.84     1.84   0.16690  -17.9341
 3.55000    1.84     1.84   0.16671  -17.9341
 3.50000    1.84     1.84   0.16681  -17.9331
 3.45000    1.84     1.84   0.16686  -17.9324
 3.40000    1.84     1.84   0.16700  -17.9333
 3.35000    1.84     1.84   0.16711  -17.9333
 3.30000    1.84     1.84   0.16704  -17.9321
 3.25000    1.84     1.84   0.16711  -17.9335
 3.20000    1.84     1.84   0.16724  -17.9335
 3.15000    1.84     1.84   0.16737  -17.9337
 3.10000    1.84     1.84   0.16706  -17.9345
 3.05000    1.84     1.84   0.16702  -17.9338
 3.00000    1.84     1.84   0.16714  -17.9347
 2.95000    1.84     1.84   0.16737  -17.9336
 2.90000    1.84     1.84   0.16740  -17.9354
 2.85000    1.84     1.84   0.16740  -17.9348
 2.80000    1.84     1.84   0.16755  -17.9351
 2.75000    1.84     1.84   0.16740  -17.9362
 2.70000    1.84     1.84   0.16752  -17.9366
 2.65000    1.84     1.84   0.16757  -17.9382
 2.60000    1.84     1.84   0.16751  -17.9380
 2.55000    1.84     1.84   0.16749  -17.9387
 2.50000    1.84     1.84   0.16749  -17.9391
 2.45000    1.84     1.84   0.16778  -17.9395
 2.40000    1.84     1.84   0.16763  -17.9390
 2.35000    1.84     1.84   0.16739  -17.9393
 2.30000    1.84     1.84   0.16765  -17.9400
 2.25000    1.84     1.84   0.16735  -17.9411
 2.20000    1.84     1.84   0.16712  -17.9418
 2.15000    1.84     1.84   0.16769  -17.9422
 2.10000    1.84     1.84   0.16794  -17.9456
 2.05000    1.84     1.84   0.16793  -17.9462
 2.00000    1.84     1.84   0.16767  -17.9463
 1.95000    1.84     1.84   0.16776  -17.9490
 1.90000    1.84     1.84   0.16745  -17.9475
 1.85000    1.84     1.84   0.16792  -17.9473
 1.80000    1.84     1.84   0.16783  -17.9496
 1.75000    1.84     1.84   0.16789  -17.9485
 1.70000    1.84     1.84   0.16775  -17.9483
 1.65000    1.84     1.84   0.16766  -17.9481
 1.60000    1.84     1.84   0.16789  -17.9512
 1.55000    1.84     1.84   0.16779  -17.9520
 1.50000    1.84     1.84   0.16787  -17.9528
 1.45000    1.84     1.84   0.16789  -17.9536
 1.40000    1.84     1.84   0.16781  -17.9529
 1.35000    1.84     1.84   0.16792  -17.9547
 1.30000    1.84     1.84   0.16778  -17.9554
 1.25000    1.84     1.84   0.16813  -17.9561
 1.20000    1.84     1.84   0.16806  -17.9566
 1.15000    1.84     1.84   0.16832  -17.9594
 1.10000    1.84     1.84   0.16821  -17.9610
 1.05000    1.84     1.84   0.16813  -17.9630
 1.00000    1.84     1.84   0.16763  -17.9630
 0.95000    1.84     1.84   0.16799  -17.9648
 0.90000    1.84     1.84   0.16806  -17.9673
 0.85000    1.84     1.84   0.16813  -17.9701
 0.80000    1.84     1.84   0.16807  -17.9724
 0.75000    1.84     1.84   0.16812  -17.9777
 0.70000    1.84     1.84   0.16781  -17.9806
 0.65000    1.84     1.84   0.16752  -17.9859
 0.60000    1.84     1.84   0.16715  -17.9901
 0.55000    1.84     1.84   0.16670  -17.9945
 0.50000    1.84     1.84   0.16583  -17.9967
 0.45000    1.84     1.84   0.16554  -18.0002
 0.40000    1.84     1.84   0.16484  -18.0023
 0.35000    1.84     1.84   0.16401  -18.0040
 0.30000    1.84     1.84   0.16341  -18.0076
 0.25000    1.84     1.84   0.16248  -18.0063
 0.20000    1.84     1.84   0.16166  -18.0061
 0.15000    1.84     1.84   0.16087  -18.0077
 0.10000    1.84     1.84   0.16029  -18.0021
 0.05000    1.84     1.84   0.15854  -18.0008
 -0.00000    1.84     1.84   0.15878  -17.9941
 -0.05000    1.84     1.84   0.15847  -17.9954
 -0.10000    1.84     1.84   0.15974  -18.0053
 -0.15000    1.84     1.84   0.16046  -18.0049
 -0.20000    1.84     1.84   0.16157  -18.0036
 -0.25000    1.84     1.84   0.16266  -18.0054
 -0.30000    1.84     1.84   0.16329  -18.0046
 -0.35000    1.84     1.84   0.16418  -18.0019
 -0.40000    1.84     1.84   0.16457  -17.9988
 -0.45000    1.84     1.84   0.16546  -17.9991
 -0.50000    1.84     1.84   0.16588  -17.9978
 -0.55000    1.84     1.84   0.16656  -17.9940
 -0.60000    1.84     1.84   0.16705  -17.9895
 -0.65000    1.84     1.84   0.16746  -17.9862
 -0.70000    1.84     1.84   0.16774  -17.9815
 -0.75000    1.84     1.84   0.16791  -17.9752
 -0.80000    1.84     1.84   0.16810  -17.9719
 -0.85000    1.84     1.84   0.16823  -17.9695
 -0.90000    1.84     1.84   0.16828  -17.9669
 -0.95000    1.84     1.84   0.16844  -17.9634
 -1.00000    1.84     1.84   0.16816  -17.9614
 -1.05000    1.84     1.84   0.16768  -17.9576
 -1.10000    1.84     1.84   0.16794  -17.9580
 -1.15000    1.84     1.84   0.16781  -17.9541
 -1.20000    1.84     1.84   0.16807  -17.9533
 -1.25000    1.84     1.84   0.16806  -17.9533
 -1.30000    1.84     1.84   0.16815  -17.9550
 -1.35000    1.84     1.84   0.16787  -17.9503
 -1.40000    1.84     1.84   0.16814  -17.9486
 -1.45000    1.84     1.84   0.16847  -17.9487
 -1.50000    1.84     1.84   0.16790  -17.9470
 -1.55000    1.84     1.84   0.16838  -17.9494
 -1.60000    1.84     1.84   0.16818  -17.9484
 -1.65000    1.84     1.84   0.16853  -17.9487
 -1.70000    1.84     1.84   0.16860  -17.9466
 -1.75000    1.84     1.84   0.16859  -17.9466
 -1.80000    1.84     1.84   0.16860  -17.9464
 -1.85000    1.84     1.84   0.16869  -17.9449
 -1.90000    1.84     1.84   0.16856  -17.9442
 -1.95000    1.84     1.84   0.16879  -17.9447
 -2.00000    1.84     1.84   0.16852  -17.9453
 -2.05000    1.84     1.84   0.16817  -17.9410
 -2.10000    1.84     1.84   0.16835  -17.9429
 -2.15000    1.84     1.84   0.16879  -17.9446
 -2.20000    1.84     1.84   0.16880  -17.9436
 -2.25000    1.84     1.84   0.16912  -17.9438
 -2.30000    1.84     1.84   0.16881  -17.9430
 -2.35000    1.84     1.84   0.16865  -17.9427
 -2.40000    1.84     1.84   0.16891  -17.9428
 -2.45000    1.84     1.84   0.16898  -17.9411
 -2.50000    1.84     1.84   0.16917  -17.9411
 -2.55000    1.84     1.84   0.16895  -17.9397
 -2.60000    1.84     1.84   0.16920  -17.9395
 -2.65000    1.84     1.84   0.16912  -17.9397
 -2.70000    1.84     1.84   0.16956  -17.9408
 -2.75000    1.84     1.84   0.16946  -17.9403
 -2.80000    1.84     1.84   0.16921  -17.9389
 -2.85000    1.84     1.84   0.16937  -17.9384
 -2.90000    1.84     1.84   0.16941  -17.9381
 -2.95000    1.84     1.84   0.16950  -17.9376
 -3.00000    1.84     1.84   0.16960  -17.9388
 -3.05000    1.84     1.84   0.16958  -17.9381
 -3.10000    1.84     1.84   0.16956  -17.9395
 -3.15000    1.84     1.84   0.16950  -17.9385
 -3.20000    1.84     1.84   0.16976  -17.9391
 -3.25000    1.84     1.84   0.16950  -17.9382
 -3.30000    1.84     1.84   0.16949  -17.9378
 -3.35000    1.84     1.84   0.16950  -17.9383
 -3.40000    1.84     1.84   0.16953  -17.9373
 -3.45000    1.84     1.84   0.16943  -17.9363
 -3.50000    1.84     1.84   0.16946  -17.9377
 -3.55000    1.84     1.84   0.16955  -17.9384
 -3.60000    1.84     1.84   0.16958  -17.9356
 -3.65000    1.84     1.84   0.16960  -17.9356
 -3.70000    1.84     1.84   0.16985  -17.9371
 -3.75000    1.84     1.84   0.16956  -17.9385
 -3.80000    1.84     1.84   0.16981  -17.9389
 -3.85000    1.84     1.84   0.16978  -17.9379
 -3.90000    1.84     1.84   0.16968  -17.9377
 -3.95000    1.84     1.84   0.16980  -17.9373
 -4.00000    1.84     1.84   0.16963  -17.9360
 -4.05000    1.84     1.84   0.16957  -17.9346
 -4.10000    1.84     1.84   0.16995  -17.9359
 -4.15000    1.84     1.84   0.17018  -17.9346
 -4.20000    1.84     1.84   0.17031  -17.9375
 -4.25000    1.84     1.84   0.17053  -17.9371
 -4.30000    1.84     1.84   0.17036  -17.9357
 -4.35000    1.84     1.84   0.17010  -17.9371
 -4.40000    1.84     1.84   0.16984  -17.9335
 -4.45000    1.84     1.84   0.17023  -17.9360
 -4.50000    1.84     1.84   0.17030  -17.9363
 -4.55000    1.84     1.84   0.17005  -17.9363
 -4.60000    1.84     1.84   0.17008  -17.9362
 -4.65000    1.84     1.84   0.17014  -17.9361
 -4.70000    1.84     1.84   0.17008  -17.9377
 -4.75000    1.84     1.84   0.17025  -17.9378
 -4.80000    1.84     1.84   0.17043  -17.9380
 -4.85000    1.84     1.84   0.17065  -17.9370
 -4.90000    1.84     1.84   0.17055  -17.9377
 -4.95000    1.84     1.84   0.17051  -17.9392
 -5.00000    1.84     1.84   0.17041  -17.9393
 -5.05000    1.84     1.84   0.17039  -17.9389
 -5.10000    1.84     1.84   0.17031  -17.9397
 -5.15000    1.84     1.84   0.17025  -17.9395
 -5.20000    1.84     1.84   0.17029  -17.9400
 -5.25000    1.84     1.84   0.17014  -17.9387
 -5.30000    1.84     1.84   0.17009  -17.9390
 -5.35000    1.84     1.84   0.17045  -17.9384
 -5.40000    1.84     1.84   0.17028  -17.9391
 -5.45000    1.84     1.84   0.17052  -17.9391
 -5.50000    1.84     1.84   0.16993  -17.9420
 -5.55000    1.84     1.84   0.17021  -17.9348
 -5.60000    1.84     1.84   0.17041  -17.9337
 -5.65000    1.84     1.84   0.17094  -17.9366
 -5.70000    1.84     1.84   0.17082  -17.9378
 -5.75000    1.84     1.84   0.17106  -17.9374
 -5.80000    1.84     1.84   0.17090  -17.9365
 -5.85000    1.84     1.84   0.17093  -17.9388
 -5.90000    1.84     1.84   0.17082  -17.9385
 -5.95000    1.84     1.84   0.17091  -17.9380
 -6.00000    1.84     1.84   0.17077  -17.9402
 -6.05000    1.84     1.84   0.17087  -17.9397
 -6.10000    1.84     1.84   0.17081  -17.9374
 -6.15000    1.84     1.84   0.17101  -17.9371
 -6.20000    1.84     1.84   0.17101  -17.9396
 -6.25000    1.84     1.84   0.17093  -17.9402
 -6.30000    1.84     1.84   0.17121  -17.9399
 -6.35000    1.84     1.84   0.17093  -17.9382
 -6.40000    1.84     1.84   0.17116  -17.9395
 -6.45000    1.84     1.84   0.17138  -17.9386
 -6.50000    1.84     1.84   0.17124  -17.9387
 -6.55000    1.84     1.84   0.17129  -17.9364
 -6.60000    1.84     1.84   0.17146  -17.9383
 -6.65000    1.84     1.84   0.17143  -17.9382
 -6.70000    1.84     1.84   0.17133  -17.9396
 -6.75000    1.84     1.84   0.17144  -17.9397
 -6.80000    1.84     1.84   0.17130  -17.9382
 -6.85000    1.84     1.84   0.17172  -17.9403
 -6.90000    1.84     1.84   0.17138  -17.9392
 -6.95000    1.84     1.84   0.17143  -17.9396
 -7.00000    1.84     1.84   0.17176  -17.9398
 -7.00000    1.84     1.84   0.17170  -17.9392
 -6.95000    1.84     1.84   0.17134  -17.9399
 -6.90000    1.84     1.84   0.17147  -17.9389
 -6.85000    1.84     1.84   0.17143  -17.9379
 -6.80000    1.84     1.84   0.17132  -17.9369
 -6.75000    1.84     1.84   0.17100  -17.9348
 -6.70000    1.84     1.84   0.17153  -17.9363
 -6.65000    1.84     1.84   0.17130  -17.9369
 -6.60000    1.84     1.84   0.17158  -17.9387
 -6.55000    1.84     1.84   0.17123  -17.9376
 -6.50000    1.84     1.84   0.17139  -17.9380
 -6.45000    1.84     1.84   0.17139  -17.9371
 -6.40000    1.84     1.84   0.17144  -17.9378
 -6.35000    1.84     1.84   0.17141  -17.9375
 -6.30000    1.84     1.84   0.17114  -17.9368
 -6.25000    1.84     1.84   0.17133  -17.9368
 -6.20000    1.84     1.84   0.17133  -17.9371
 -6.15000    1.84     1.84   0.17132  -17.9383
 -6.10000    1.84     1.84   0.17116  -17.9376
 -6.05000    1.84     1.84   0.17114  -17.9377
 -6.00000    1.84     1.84   0.17101  -17.9359
 -5.95000    1.84     1.84   0.17106  -17.9368
 -5.90000    1.84     1.84   0.17113  -17.9375
 -5.85000    1.84     1.84   0.17122  -17.9368
 -5.80000    1.84     1.84   0.17128  -17.9376
 -5.75000    1.84     1.84   0.17115  -17.9371
 -5.70000    1.84     1.84   0.17123  -17.9379
 -5.65000    1.84     1.84   0.17128  -17.9381
 -5.60000    1.84     1.84   0.17135  -17.9375
 -5.55000    1.84     1.84   0.17104  -17.9380
 -5.50000    1.84     1.84   0.17142  -17.9373
 -5.45000    1.84     1.84   0.17100  -17.9355
 -5.40000    1.84     1.84   0.17128  -17.9367
 -5.35000    1.84     1.84   0.17114  -17.9369
 -5.30000    1.84     1.84   0.17104  -17.9364
 -5.25000    1.84     1.84   0.17136  -17.9381
 -5.20000    1.84     1.84   0.17138  -17.9361
 -5.15000    1.84     1.84   0.17137  -17.9350
 -5.10000    1.84     1.84   0.17125  -17.9347
 -5.05000    1.84     1.84   0.17154  -17.9354
 -5.00000    1.84     1.84   0.17113  -17.9346
 -4.95000    1.84     1.84   0.17134  -17.9349
 -4.90000    1.84     1.84   0.17119  -17.9341
 -4.85000    1.84     1.84   0.17108  -17.9328
 -4.80000    1.84     1.84   0.17119  -17.9330
 -4.75000    1.84     1.84   0.17128  -17.9334
 -4.70000    1.84     1.84   0.17123  -17.9350
 -4.65000    1.84     1.84   0.17114  -17.9350
 -4.60000    1.84     1.84   0.17140  -17.9352
 -4.55000    1.84     1.84   0.17131  -17.9343
 -4.50000    1.84     1.84   0.17145  -17.9351
 -4.45000    1.84     1.84   0.17126  -17.9338
 -4.40000    1.84     1.84   0.17126  -17.9345
 -4.35000    1.84     1.84   0.17107  -17.9340
 -4.30000    1.84     1.84   0.17105  -17.9347
 -4.25000    1.84     1.84   0.17139  -17.9343
 -4.20000    1.84     1.84   0.17121  -17.9349
 -4.15000    1.84     1.84   0.17125  -17.9348
 -4.10000    1.84     1.84   0.17137  -17.9344
 -4.05000    1.84     1.84   0.17101  -17.9349
 -4.00000    1.84     1.84   0.17081  -17.9362
 -3.95000    1.84     1.84   0.17106  -17.9359
 -3.90000    1.84     1.84   0.17088  -17.9358
 -3.85000    1.84     1.84   0.17100  -17.9358
 -3.80000    1.84     1.84   0.17075  -17.9343
 -3.75000    1.84     1.84   0.17081  -17.9349
 -3.70000    1.84     1.84   0.17060  -17.9346
 -3.65000    1.84     1.84   0.17081  -17.9356
 -3.60000    1.84     1.84   0.17055  -17.9347
 -3.55000    1.84     1.84   0.17077  -17.9355
 -3.50000    1.84     1.84   0.17052  -17.9355
 -3.45000    1.84     1.84   0.17060  -17.9361
 -3.40000    1.84     1.84   0.17075  -17.9360
 -3.35000    1.84     1.84   0.17061  -17.9365
 -3.30000    1.84     1.84   0.17054  -17.9353
 -3.25000    1.84     1.84   0.17063  -17.9359
 -3.20000    1.84     1.84   0.17052  -17.9349
 -3.15000    1.84     1.84   0.17049  -17.9336
 -3.10000    1.84     1.84   0.17074  -17.9349
 -3.05000    1.84     1.84   0.17071  -17.9361
 -3.00000    1.84     1.84   0.17070  -17.9359
 -2.95000    1.84     1.84   0.17049  -17.9366
 -2.90000    1.84     1.84   0.17060  -17.9362
 -2.85000    1.84     1.84   0.17052  -17.9355
 -2.80000    1.84     1.84   0.17076  -17.9359
 -2.75000    1.84     1.84   0.17044  -17.9335
 -2.70000    1.84     1.84   0.17090  -17.9354
 -2.65000    1.84     1.84   0.17078  -17.9358
 -2.60000    1.84     1.84   0.17081  -17.9373
 -2.55000    1.84     1.84   0.17048  -17.9368
 -2.50000    1.84     1.84   0.17034  -17.9353
 -2.45000    1.84     1.84   0.17059  -17.9377
 -2.40000    1.84     1.84   0.17074  -17.9389
 -2.35000    1.84     1.84   0.17057  -17.9397
 -2.30000    1.84     1.84   0.17080  -17.9418
 -2.25000    1.84     1.84   0.17071  -17.9409
 -2.20000    1.84     1.84   0.17067  -17.9411
 -2.15000    1.84     1.84   0.17034  -17.9436
 -2.10000    1.84     1.84   0.17017  -17.9434
 -2.05000    1.84     1.84   0.17031  -17.9447
 -2.00000    1.84     1.84   0.16999  -17.9444
 -1.95000    1.84     1.84   0.17009  -17.9438
 -1.90000    1.84     1.84   0.17013  -17.9457
 -1.85000    1.84     1.84   0.16972  -17.9427
 -1.80000    1.84     1.84   0.17020  -17.9453
 -1.75000    1.84     1.84   0.17021  -17.9437
 -1.70000    1.84     1.84   0.16946  -17.9433
 -1.65000    1.84     1.84   0.17011  -17.9436
 -1.60000    1.84     1.84   0.16960  -17.9450
 -1.55000    1.84     1.84   0.16950  -17.9436
 -1.50000    1.84     1.84   0.16945  -17.9454
 -1.45000    1.84     1.84   0.16958  -17.9495
 -1.40000    1.84     1.84   0.16941  -17.9499
 -1.35000    1.84     1.84   0.16941  -17.9507
 -1.30000    1.84     1.84   0.16948  -17.9531
 -1.25000    1.84     1.84   0.16977  -17.9522
 -1.20000    1.84     1.84   0.16999  -17.9537
 -1.15000    1.84     1.84   0.16973  -17.9549
 -1.10000    1.84     1.84   0.16988  -17.9579
 -1.05000    1.84     1.84   0.16975  -17.9584
 -1.00000    1.84     1.84   0.16976  -17.9606
 -0.95000    1.84     1.84   0.16968  -17.9625
 -0.90000    1.84     1.84   0.16973  -17.9654
 -0.85000    1.84     1.84   0.16958  -17.9679
 -0.80000    1.84     1.84   0.16961  -17.9718
 -0.75000    1.84     1.84   0.16933  -17.9757
 -0.70000    1.84     1.84   0.16934  -17.9798
 -0.65000    1.84     1.84   0.16868  -17.9848
 -0.60000    1.84     1.84   0.16849  -17.9897
 -0.55000    1.84     1.84   0.16790  -17.9952
 -0.50000    1.84     1.84   0.16726  -17.9978
 -0.45000    1.84     1.84   0.16640  -17.9989
 -0.40000    1.84     1.84   0.16542  -18.0014
 -0.35000    1.84     1.84   0.16497  -18.0029
 -0.30000    1.84     1.84   0.16416  -18.0054
 -0.25000    1.84     1.84   0.16363  -18.0070
 -0.20000    1.84     1.84   0.16212  -18.0038
 -0.15000    1.84     1.84   0.16108  -18.0052
 -0.10000    1.84     1.84   0.16081  -18.0015
 -0.05000    1.84     1.84   0.15899  -18.0001
 0.00000    1.84     1.84   0.15907  -17.9924
