 Field[T] Tsmpl[K] Tcntr[K] Signal   Mirror[MM]
 0.00000    1.84     1.84   0.49265  -18.3306
 0.05000    1.84     1.84   0.49008  -18.3317
 0.10000    1.84     1.84   0.47861  -18.3377
 0.15000    1.84     1.84   0.48991  -18.3543
 0.20000    1.84     1.84   0.49744  -18.3605
 0.25000    1.84     1.84   0.51396  -18.3662
 0.30000    1.84     1.84   0.52869  -18.3717
 0.35000    1.84     1.84   0.54362  -18.3751
 0.40000    1.84     1.84   0.55796  -18.3778
 0.45000    1.84     1.84   0.57110  -18.3792
 0.50000    1.84     1.84   0.58394  -18.3809
 0.55000    1.84     1.84   0.59871  -18.3796
 0.60000    1.84     1.84   0.61189  -18.3815
 0.65000    1.84     1.84   0.62713  -18.3805
 0.70000    1.84     1.84   0.64099  -18.3789
 0.75000    1.84     1.84   0.65418  -18.3758
 0.80000    1.84     1.84   0.66809  -18.3718
 0.85000    1.84     1.84   0.67523  -18.3671
 0.90000    1.84     1.84   0.68444  -18.3642
 0.95000    1.84     1.84   0.68739  -18.3597
 1.00000    1.84     1.84   0.69308  -18.3560
 1.05000    1.84     1.84   0.69740  -18.3526
 1.10000    1.84     1.84   0.69719  -18.3500
 1.15000    1.84     1.84   0.69852  -18.3469
 1.20000    1.84     1.84   0.69830  -18.3436
 1.25000    1.84     1.84   0.69980  -18.3414
 1.30000    1.84     1.84   0.70126  -18.3397
 1.35000    1.84     1.84   0.70498  -18.3380
 1.40000    1.84     1.84   0.70489  -18.3364
 1.45000    1.84     1.84   0.70434  -18.3351
 1.50000    1.84     1.84   0.70549  -18.3337
 1.55000    1.84     1.84   0.70331  -18.3319
 1.60000    1.84     1.84   0.70378  -18.3304
 1.65000    1.84     1.84   0.70528  -18.3296
 1.70000    1.84     1.84   0.70293  -18.3276
 1.75000    1.84     1.84   0.70374  -18.3263
 1.80000    1.84     1.84   0.70297  -18.3256
 1.85000    1.84     1.84   0.70091  -18.3241
 1.90000    1.84     1.84   0.70096  -18.3231
 1.95000    1.84     1.84   0.70139  -18.3224
 2.00000    1.84     1.84   0.70121  -18.3217
 2.05000    1.84     1.84   0.70079  -18.3209
 2.10000    1.84     1.84   0.69993  -18.3204
 2.15000    1.84     1.84   0.69963  -18.3192
 2.20000    1.84     1.84   0.69976  -18.3179
 2.25000    1.84     1.84   0.70126  -18.3165
 2.30000    1.84     1.84   0.69925  -18.3160
 2.35000    1.84     1.84   0.69847  -18.3155
 2.40000    1.84     1.84   0.69792  -18.3146
 2.45000    1.84     1.84   0.69839  -18.3139
 2.50000    1.84     1.84   0.69963  -18.3142
 2.55000    1.84     1.84   0.69659  -18.3134
 2.60000    1.84     1.84   0.69574  -18.3125
 2.65000    1.84     1.84   0.69509  -18.3119
 2.70000    1.84     1.84   0.69608  -18.3119
 2.75000    1.84     1.84   0.69886  -18.3116
 2.80000    1.84     1.84   0.69330  -18.3104
 2.85000    1.84     1.84   0.69578  -18.3104
 2.90000    1.84     1.84   0.69578  -18.3103
 2.95000    1.84     1.84   0.69505  -18.3105
 3.00000    1.84     1.84   0.69518  -18.3107
 3.05000    1.84     1.84   0.69479  -18.3097
 3.10000    1.84     1.84   0.69526  -18.3097
 3.15000    1.84     1.84   0.69484  -18.3092
 3.20000    1.84     1.84   0.69475  -18.3088
 3.25000    1.84     1.84   0.69462  -18.3085
 3.30000    1.84     1.84   0.69334  -18.3090
 3.35000    1.84     1.84   0.69291  -18.3083
 3.40000    1.84     1.84   0.69184  -18.3080
 3.45000    1.84     1.84   0.69180  -18.3073
 3.50000    1.84     1.84   0.69043  -18.3070
 3.55000    1.84     1.84   0.69004  -18.3067
 3.60000    1.84     1.84   0.69013  -18.3062
 3.65000    1.84     1.84   0.69116  -18.3064
 3.70000    1.84     1.84   0.69116  -18.3060
 3.75000    1.84     1.84   0.69240  -18.3056
 3.80000    1.84     1.84   0.69069  -18.3049
 3.85000    1.84     1.84   0.68936  -18.3043
 3.90000    1.84     1.84   0.69150  -18.3047
 3.95000    1.84     1.84   0.69039  -18.3045
 4.00000    1.84     1.84   0.68850  -18.3040
 4.05000    1.84     1.84   0.68923  -18.3037
 4.10000    1.84     1.84   0.68709  -18.3034
 4.15000    1.84     1.84   0.68884  -18.3033
 4.20000    1.84     1.84   0.68816  -18.3034
 4.25000    1.84     1.84   0.68765  -18.3037
 4.30000    1.84     1.84   0.68615  -18.3028
 4.35000    1.84     1.84   0.68705  -18.3028
 4.40000    1.84     1.84   0.68563  -18.3022
 4.45000    1.84     1.84   0.68679  -18.3026
 4.50000    1.84     1.84   0.68474  -18.3025
 4.55000    1.84     1.84   0.68427  -18.3017
 4.60000    1.84     1.84   0.68683  -18.3017
 4.65000    1.84     1.84   0.68645  -18.3015
 4.70000    1.84     1.84   0.68362  -18.3004
 4.75000    1.84     1.84   0.68397  -18.3006
 4.80000    1.84     1.84   0.68508  -18.3007
 4.85000    1.84     1.84   0.68195  -18.2996
 4.90000    1.84     1.84   0.68251  -18.3002
 4.95000    1.84     1.84   0.67964  -18.3000
 5.00000    1.84     1.84   0.68016  -18.3002
 5.05000    1.84     1.84   0.68058  -18.2995
 5.10000    1.84     1.84   0.67789  -18.2998
 5.15000    1.84     1.84   0.67746  -18.2990
 5.20000    1.84     1.84   0.68016  -18.2991
 5.25000    1.84     1.84   0.67943  -18.2987
 5.30000    1.84     1.84   0.67879  -18.2975
 5.35000    1.84     1.84   0.67759  -18.2977
 5.40000    1.84     1.84   0.67883  -18.2982
 5.45000    1.84     1.84   0.68067  -18.2977
 5.50000    1.84     1.84   0.68007  -18.2976
 5.55000    1.84     1.84   0.67836  -18.2981
 5.60000    1.84     1.84   0.67943  -18.2980
 5.65000    1.84     1.84   0.67934  -18.2983
 5.70000    1.84     1.84   0.67892  -18.2973
 5.75000    1.84     1.84   0.67947  -18.2977
 5.80000    1.84     1.84   0.67956  -18.2975
 5.85000    1.84     1.84   0.67789  -18.2973
 5.90000    1.84     1.84   0.67690  -18.2970
 5.95000    1.84     1.84   0.67763  -18.2970
 6.00000    1.84     1.84   0.67785  -18.2969
 6.05000    1.84     1.84   0.67699  -18.2966
 6.10000    1.84     1.84   0.67519  -18.2964
 6.15000    1.84     1.84   0.67571  -18.2959
 6.20000    1.84     1.84   0.67648  -18.2962
 6.25000    1.84     1.84   0.67523  -18.2959
 6.30000    1.84     1.84   0.67678  -18.2965
 6.35000    1.84     1.84   0.67404  -18.2956
 6.40000    1.84     1.84   0.67202  -18.2951
 6.45000    1.84     1.84   0.67523  -18.2956
 6.50000    1.84     1.84   0.67344  -18.2955
 6.55000    1.84     1.84   0.67134  -18.2947
 6.60000    1.84     1.84   0.67352  -18.2953
 6.65000    1.84     1.84   0.67292  -18.2947
 6.70000    1.84     1.84   0.67660  -18.2947
 6.75000    1.84     1.84   0.67498  -18.2941
 6.80000    1.84     1.84   0.67202  -18.2943
 6.85000    1.84     1.84   0.67172  -18.2941
 6.90000    1.84     1.84   0.67151  -18.2937
 6.95000    1.84     1.84   0.67429  -18.2940
 7.00000    1.84     1.84   0.67327  -18.2936
 7.00000    1.84     1.84   0.67331  -18.2937
 6.95000    1.84     1.84   0.67194  -18.2942
 6.90000    1.84     1.84   0.67378  -18.2943
 6.85000    1.84     1.84   0.67318  -18.2941
 6.80000    1.84     1.84   0.67536  -18.2940
 6.75000    1.84     1.84   0.67408  -18.2941
 6.70000    1.84     1.84   0.67660  -18.2941
 6.65000    1.84     1.84   0.67528  -18.2942
 6.60000    1.84     1.84   0.67562  -18.2949
 6.55000    1.84     1.84   0.67438  -18.2947
 6.50000    1.84     1.84   0.67528  -18.2949
 6.45000    1.84     1.84   0.67558  -18.2953
 6.40000    1.84     1.84   0.67639  -18.2953
 6.35000    1.84     1.84   0.67519  -18.2956
 6.30000    1.84     1.84   0.67455  -18.2950
 6.25000    1.84     1.84   0.67626  -18.2950
 6.20000    1.84     1.84   0.67541  -18.2953
 6.15000    1.84     1.84   0.67481  -18.2954
 6.10000    1.84     1.84   0.67352  -18.2947
 6.05000    1.84     1.84   0.67536  -18.2949
 6.00000    1.84     1.84   0.67630  -18.2947
 5.95000    1.84     1.84   0.67660  -18.2952
 5.90000    1.84     1.84   0.67797  -18.2949
 5.85000    1.84     1.84   0.67613  -18.2942
 5.80000    1.84     1.84   0.67883  -18.2953
 5.75000    1.84     1.84   0.67934  -18.2951
 5.70000    1.84     1.84   0.67892  -18.2951
 5.65000    1.84     1.84   0.67827  -18.2949
 5.60000    1.84     1.84   0.67917  -18.2951
 5.55000    1.84     1.84   0.67887  -18.2952
 5.50000    1.84     1.84   0.67951  -18.2948
 5.45000    1.84     1.84   0.68110  -18.2952
 5.40000    1.84     1.84   0.68225  -18.2951
 5.35000    1.84     1.84   0.67977  -18.2957
 5.30000    1.84     1.84   0.68324  -18.2958
 5.25000    1.84     1.84   0.68285  -18.2957
 5.20000    1.84     1.84   0.68255  -18.2956
 5.15000    1.84     1.84   0.68247  -18.2960
 5.10000    1.84     1.84   0.68170  -18.2954
 5.05000    1.84     1.84   0.68028  -18.2950
 5.00000    1.84     1.84   0.68260  -18.2968
 4.95000    1.84     1.84   0.68016  -18.2945
 4.90000    1.84     1.84   0.68041  -18.2964
 4.85000    1.84     1.84   0.67990  -18.2950
 4.80000    1.84     1.84   0.68247  -18.2969
 4.75000    1.84     1.84   0.68397  -18.2966
 4.70000    1.84     1.84   0.68328  -18.2964
 4.65000    1.84     1.84   0.68298  -18.2961
 4.60000    1.84     1.84   0.68602  -18.2963
 4.55000    1.84     1.84   0.68555  -18.2970
 4.50000    1.84     1.84   0.68559  -18.2965
 4.45000    1.84     1.84   0.68435  -18.2960
 4.40000    1.84     1.84   0.68611  -18.2968
 4.35000    1.84     1.84   0.68829  -18.2973
 4.30000    1.84     1.84   0.68713  -18.2972
 4.25000    1.84     1.84   0.68649  -18.2969
 4.20000    1.84     1.84   0.68555  -18.2961
 4.15000    1.84     1.84   0.68910  -18.2973
 4.10000    1.84     1.84   0.68974  -18.2977
 4.05000    1.84     1.84   0.68996  -18.2979
 4.00000    1.84     1.84   0.68944  -18.2974
 3.95000    1.84     1.84   0.68897  -18.2979
 3.90000    1.84     1.84   0.68842  -18.2978
 3.85000    1.84     1.84   0.68991  -18.2980
 3.80000    1.84     1.84   0.68932  -18.2984
 3.75000    1.84     1.84   0.68897  -18.2981
 3.70000    1.84     1.84   0.69176  -18.2987
 3.65000    1.84     1.84   0.69351  -18.2988
 3.60000    1.84     1.84   0.69193  -18.2988
 3.55000    1.84     1.84   0.69244  -18.2985
 3.50000    1.84     1.84   0.69317  -18.2991
 3.45000    1.84     1.84   0.69574  -18.3000
 3.40000    1.84     1.84   0.69419  -18.2999
 3.35000    1.84     1.84   0.69146  -18.2995
 3.30000    1.84     1.84   0.69330  -18.3000
 3.25000    1.84     1.84   0.69064  -18.3002
 3.20000    1.84     1.84   0.69176  -18.3014
 3.15000    1.84     1.84   0.69146  -18.3010
 3.10000    1.84     1.84   0.69051  -18.3018
 3.05000    1.84     1.84   0.69176  -18.3007
 3.00000    1.84     1.84   0.69176  -18.3012
 2.95000    1.84     1.84   0.69642  -18.3018
 2.90000    1.84     1.84   0.69822  -18.3020
 2.85000    1.84     1.84   0.69625  -18.3023
 2.80000    1.84     1.84   0.69599  -18.3026
 2.75000    1.84     1.84   0.69526  -18.3032
 2.70000    1.84     1.84   0.69698  -18.3028
 2.65000    1.84     1.84   0.69428  -18.3033
 2.60000    1.84     1.84   0.69753  -18.3044
 2.55000    1.84     1.84   0.69723  -18.3052
 2.50000    1.84     1.84   0.69621  -18.3040
 2.45000    1.84     1.84   0.69903  -18.3050
 2.40000    1.84     1.84   0.70254  -18.3063
 2.35000    1.84     1.84   0.70002  -18.3062
 2.30000    1.84     1.84   0.69942  -18.3063
 2.25000    1.84     1.84   0.69685  -18.3048
 2.20000    1.84     1.84   0.70168  -18.3088
 2.15000    1.84     1.84   0.70139  -18.3100
 2.10000    1.84     1.84   0.70143  -18.3107
 2.05000    1.84     1.84   0.70288  -18.3106
 2.00000    1.84     1.84   0.70181  -18.3105
 1.95000    1.84     1.84   0.70331  -18.3126
 1.90000    1.84     1.84   0.70400  -18.3138
 1.85000    1.84     1.84   0.70502  -18.3148
 1.80000    1.84     1.84   0.70532  -18.3153
 1.75000    1.84     1.84   0.70087  -18.3144
 1.70000    1.84     1.84   0.70438  -18.3167
 1.65000    1.84     1.84   0.70442  -18.3187
 1.60000    1.84     1.84   0.70485  -18.3192
 1.55000    1.84     1.84   0.70502  -18.3211
 1.50000    1.84     1.84   0.70391  -18.3228
 1.45000    1.84     1.84   0.70464  -18.3250
 1.40000    1.84     1.84   0.70344  -18.3266
 1.35000    1.84     1.84   0.70447  -18.3292
 1.30000    1.84     1.84   0.70434  -18.3308
 1.25000    1.84     1.84   0.70451  -18.3327
 1.20000    1.84     1.84   0.70481  -18.3357
 1.15000    1.84     1.84   0.70284  -18.3380
 1.10000    1.84     1.84   0.70254  -18.3402
 1.05000    1.84     1.84   0.69895  -18.3429
 1.00000    1.84     1.84   0.69599  -18.3476
 0.95000    1.84     1.84   0.69257  -18.3505
 0.90000    1.84     1.84   0.68803  -18.3551
 0.85000    1.84     1.84   0.67981  -18.3586
 0.80000    1.84     1.84   0.67202  -18.3630
 0.75000    1.84     1.84   0.66265  -18.3678
 0.70000    1.84     1.84   0.65084  -18.3707
 0.65000    1.84     1.84   0.63860  -18.3728
 0.60000    1.84     1.84   0.62169  -18.3732
 0.55000    1.84     1.84   0.60804  -18.3728
 0.50000    1.84     1.84   0.59319  -18.3734
 0.45000    1.84     1.84   0.58125  -18.3719
 0.40000    1.84     1.84   0.56742  -18.3702
 0.35000    1.84     1.84   0.55120  -18.3676
 0.30000    1.84     1.84   0.53875  -18.3645
 0.25000    1.84     1.84   0.52458  -18.3577
 0.20000    1.84     1.84   0.50810  -18.3534
 0.15000    1.84     1.84   0.49975  -18.3472
 0.10000    1.84     1.84   0.48169  -18.3318
 0.05000    1.84     1.84   0.49466  -18.3243
 -0.00000    1.84     1.84   0.49937  -18.3229
