 Field[T] Tsmpl[K] Tcntr[K] Signal   Mirror[MM]
 0.00000    1.86     1.86   0.00340  -20.3747
 0.05000    1.86     1.86   0.00341  -20.3745
 0.10000    1.86     1.86   0.00342  -20.3748
 0.15000    1.86     1.86   0.00342  -20.3749
 0.20000    1.86     1.86   0.00343  -20.3753
 0.25000    1.86     1.86   0.00344  -20.3760
 0.30000    1.86     1.86   0.00345  -20.3761
 0.35000    1.86     1.86   0.00347  -20.3765
 0.40000    1.86     1.86   0.00348  -20.3770
 0.45000    1.86     1.86   0.00350  -20.3770
 0.50000    1.86     1.86   0.00353  -20.3783
 0.55000    1.86     1.86   0.00355  -20.3790
 0.60000    1.86     1.86   0.00357  -20.3800
 0.65000    1.86     1.86   0.00359  -20.3810
 0.70000    1.86     1.86   0.00361  -20.3810
 0.75000    1.86     1.86   0.00363  -20.3815
 0.80000    1.86     1.86   0.00366  -20.3825
 0.85000    1.86     1.86   0.00368  -20.3835
 0.90000    1.86     1.86   0.00370  -20.3835
 0.95000    1.86     1.86   0.00372  -20.3832
 1.00000    1.86     1.86   0.00374  -20.3844
 1.05000    1.86     1.86   0.00378  -20.3854
 1.10000    1.86     1.86   0.00380  -20.3861
 1.15000    1.86     1.86   0.00382  -20.3865
 1.20000    1.86     1.86   0.00385  -20.3870
 1.25000    1.86     1.86   0.00388  -20.3882
 1.30000    1.86     1.86   0.00390  -20.3886
 1.35000    1.86     1.86   0.00392  -20.3884
 1.40000    1.86     1.86   0.00395  -20.3890
 1.45000    1.86     1.86   0.00397  -20.3900
 1.50000    1.86     1.86   0.00400  -20.3900
 1.55000    1.86     1.86   0.00402  -20.3905
 1.60000    1.86     1.86   0.00406  -20.3905
 1.65000    1.86     1.86   0.00409  -20.3910
 1.70000    1.86     1.86   0.00410  -20.3913
 1.75000    1.86     1.86   0.00412  -20.3915
 1.80000    1.86     1.86   0.00415  -20.3920
 1.85000    1.86     1.86   0.00417  -20.3925
 1.90000    1.86     1.86   0.00419  -20.3925
 1.95000    1.86     1.86   0.00421  -20.3925
 2.00000    1.86     1.86   0.00423  -20.3925
 2.05000    1.86     1.86   0.00424  -20.3930
 2.10000    1.86     1.86   0.00426  -20.3930
 2.15000    1.86     1.86   0.00428  -20.3930
 2.20000    1.86     1.86   0.00431  -20.3930
 2.25000    1.86     1.86   0.00434  -20.3935
 2.30000    1.86     1.86   0.00436  -20.3940
 2.35000    1.86     1.86   0.00438  -20.3945
 2.40000    1.86     1.86   0.00440  -20.3945
 2.45000    1.86     1.86   0.00442  -20.3945
 2.50000    1.86     1.86   0.00444  -20.3950
 2.55000    1.86     1.86   0.00445  -20.3950
 2.60000    1.86     1.86   0.00447  -20.3950
 2.65000    1.86     1.86   0.00448  -20.3950
 2.70000    1.86     1.86   0.00450  -20.3950
 2.75000    1.86     1.86   0.00451  -20.3945
 2.80000    1.86     1.86   0.00453  -20.3935
 2.85000    1.86     1.86   0.00454  -20.3935
 2.90000    1.86     1.86   0.00456  -20.3935
 2.95000    1.86     1.86   0.00458  -20.3935
 3.00000    1.86     1.86   0.00458  -20.3935
 3.05000    1.86     1.86   0.00459  -20.3940
 3.10000    1.86     1.86   0.00460  -20.3940
 3.15000    1.86     1.86   0.00461  -20.3940
 3.20000    1.86     1.86   0.00462  -20.3940
 3.25000    1.86     1.86   0.00464  -20.3940
 3.30000    1.86     1.86   0.00466  -20.3940
 3.35000    1.86     1.86   0.00467  -20.3940
 3.40000    1.86     1.86   0.00468  -20.3940
 3.45000    1.86     1.86   0.00470  -20.3940
 3.50000    1.86     1.86   0.00471  -20.3940
 3.55000    1.86     1.86   0.00473  -20.3940
 3.60000    1.86     1.86   0.00475  -20.3940
 3.65000    1.86     1.86   0.00475  -20.3940
 3.70000    1.86     1.86   0.00477  -20.3940
 3.75000    1.86     1.86   0.00478  -20.3940
 3.80000    1.86     1.86   0.00479  -20.3940
 3.85000    1.86     1.86   0.00482  -20.3935
 3.90000    1.86     1.86   0.00483  -20.3935
 3.95000    1.86     1.86   0.00483  -20.3935
 4.00000    1.86     1.86   0.00484  -20.3930
 4.05000    1.86     1.86   0.00485  -20.3930
 4.10000    1.86     1.86   0.00486  -20.3930
 4.15000    1.86     1.86   0.00487  -20.3929
 4.20000    1.86     1.86   0.00488  -20.3925
 4.25000    1.86     1.86   0.00488  -20.3920
 4.30000    1.86     1.86   0.00488  -20.3920
 4.35000    1.86     1.86   0.00489  -20.3915
 4.40000    1.86     1.86   0.00489  -20.3910
 4.45000    1.86     1.86   0.00490  -20.3910
 4.50000    1.86     1.86   0.00490  -20.3905
 4.55000    1.86     1.86   0.00491  -20.3902
 4.60000    1.86     1.86   0.00491  -20.3900
 4.65000    1.86     1.86   0.00492  -20.3900
 4.70000    1.86     1.86   0.00492  -20.3900
 4.75000    1.86     1.86   0.00493  -20.3900
 4.80000    1.86     1.86   0.00493  -20.3900
 4.85000    1.86     1.86   0.00493  -20.3900
 4.90000    1.86     1.86   0.00493  -20.3900
 4.95000    1.86     1.86   0.00493  -20.3900
 5.00000    1.86     1.86   0.00494  -20.3895
 5.05000    1.86     1.86   0.00494  -20.3895
 5.10000    1.86     1.86   0.00494  -20.3895
 5.15000    1.86     1.86   0.00494  -20.3890
 5.20000    1.86     1.86   0.00495  -20.3890
 5.25000    1.86     1.86   0.00495  -20.3883
 5.30000    1.86     1.86   0.00495  -20.3885
 5.35000    1.86     1.86   0.00495  -20.3885
 5.40000    1.86     1.86   0.00496  -20.3880
 5.45000    1.86     1.86   0.00496  -20.3880
 5.50000    1.86     1.86   0.00496  -20.3880
 5.55000    1.86     1.86   0.00495  -20.3880
 5.60000    1.86     1.86   0.00495  -20.3880
 5.65000    1.86     1.86   0.00495  -20.3880
 5.70000    1.86     1.86   0.00495  -20.3880
 5.75000    1.86     1.86   0.00495  -20.3880
 5.80000    1.86     1.86   0.00496  -20.3875
 5.85000    1.86     1.86   0.00496  -20.3875
 5.90000    1.86     1.86   0.00495  -20.3875
 5.95000    1.86     1.86   0.00496  -20.3875
 6.00000    1.86     1.86   0.00496  -20.3875
 6.05000    1.86     1.86   0.00496  -20.3867
 6.10000    1.86     1.86   0.00497  -20.3865
 6.15000    1.86     1.86   0.00497  -20.3865
 6.20000    1.86     1.86   0.00496  -20.3865
 6.25000    1.86     1.86   0.00495  -20.3865
 6.30000    1.86     1.86   0.00495  -20.3865
 6.35000    1.86     1.86   0.00495  -20.3865
 6.40000    1.86     1.86   0.00495  -20.3865
 6.45000    1.86     1.86   0.00495  -20.3863
 6.50000    1.86     1.86   0.00496  -20.3865
 6.55000    1.86     1.86   0.00496  -20.3865
 6.60000    1.86     1.86   0.00497  -20.3865
 6.65000    1.86     1.86   0.00497  -20.3865
 6.70000    1.86     1.86   0.00496  -20.3865
 6.75000    1.86     1.86   0.00496  -20.3865
 6.80000    1.86     1.86   0.00496  -20.3865
 6.85000    1.86     1.86   0.00496  -20.3860
 6.90000    1.86     1.86   0.00496  -20.3860
 6.95000    1.86     1.86   0.00496  -20.3858
 7.00000    1.86     1.86   0.00496  -20.3855
 7.00000    1.86     1.86   0.00496  -20.3855
