 Field[T] Tsmpl[K] Tcntr[K] Signal   Mirror[MM]
 0.00000    1.84     1.84   0.50152  -18.4164
 0.05000    1.84     1.84   0.50061  -18.4165
 0.10000    1.84     1.84   0.49962  -18.4165
 0.15000    1.84     1.84   0.49268  -18.4166
 0.20000    1.84     1.84   0.48179  -18.4169
 0.25000    1.84     1.84   0.46337  -18.4180
 0.30000    1.84     1.84   0.45235  -18.4280
 0.35000    1.84     1.84   0.45227  -18.4369
 0.40000    1.84     1.84   0.46128  -18.4438
 0.45000    1.84     1.84   0.47509  -18.4499
 0.50000    1.84     1.84   0.48777  -18.4549
 0.55000    1.84     1.84   0.50604  -18.4588
 0.60000    1.84     1.84   0.51765  -18.4626
 0.65000    1.84     1.84   0.53350  -18.4638
 0.70000    1.84     1.84   0.55038  -18.4652
 0.75000    1.84     1.84   0.56476  -18.4663
 0.80000    1.84     1.84   0.58058  -18.4676
 0.85000    1.84     1.84   0.59666  -18.4677
 0.90000    1.84     1.84   0.61313  -18.4654
 0.95000    1.84     1.84   0.62722  -18.4637
 1.00000    1.84     1.84   0.63824  -18.4613
 1.05000    1.84     1.84   0.65238  -18.4585
 1.10000    1.84     1.84   0.65993  -18.4561
 1.15000    1.84     1.84   0.66608  -18.4534
 1.20000    1.84     1.84   0.67193  -18.4504
 1.25000    1.84     1.84   0.67561  -18.4484
 1.30000    1.84     1.84   0.68114  -18.4461
 1.35000    1.84     1.84   0.68391  -18.4448
 1.40000    1.84     1.84   0.68545  -18.4428
 1.45000    1.84     1.84   0.68540  -18.4405
 1.50000    1.84     1.84   0.68668  -18.4397
 1.55000    1.84     1.84   0.68968  -18.4380
 1.60000    1.84     1.84   0.69190  -18.4365
 1.65000    1.84     1.84   0.69018  -18.4353
 1.70000    1.84     1.84   0.69169  -18.4340
 1.75000    1.84     1.84   0.69135  -18.4329
 1.80000    1.84     1.84   0.69229  -18.4315
 1.85000    1.84     1.84   0.69372  -18.4304
 1.90000    1.84     1.84   0.69516  -18.4302
 1.95000    1.84     1.84   0.69380  -18.4286
 2.00000    1.84     1.84   0.69070  -18.4274
 2.05000    1.84     1.84   0.69435  -18.4274
 2.10000    1.84     1.84   0.69425  -18.4260
 2.15000    1.84     1.84   0.69365  -18.4243
 2.20000    1.84     1.84   0.69399  -18.4245
 2.25000    1.84     1.84   0.69446  -18.4240
 2.30000    1.84     1.84   0.69620  -18.4235
 2.35000    1.84     1.84   0.69430  -18.4223
 2.40000    1.84     1.84   0.69446  -18.4217
 2.45000    1.84     1.84   0.69336  -18.4215
 2.50000    1.84     1.84   0.69172  -18.4198
 2.55000    1.84     1.84   0.69292  -18.4204
 2.60000    1.84     1.84   0.69331  -18.4194
 2.65000    1.84     1.84   0.69587  -18.4192
 2.70000    1.84     1.84   0.69297  -18.4179
 2.75000    1.84     1.84   0.69302  -18.4176
 2.80000    1.84     1.84   0.69597  -18.4180
 2.85000    1.84     1.84   0.69164  -18.4170
 2.90000    1.84     1.84   0.69328  -18.4171
 2.95000    1.84     1.84   0.69315  -18.4165
 3.00000    1.84     1.84   0.69263  -18.4166
 3.05000    1.84     1.84   0.69190  -18.4157
 3.10000    1.84     1.84   0.69080  -18.4151
 3.15000    1.84     1.84   0.68678  -18.4139
 3.20000    1.84     1.84   0.68981  -18.4147
 3.25000    1.84     1.84   0.68931  -18.4148
 3.30000    1.84     1.84   0.68921  -18.4142
 3.35000    1.84     1.84   0.68796  -18.4139
 3.40000    1.84     1.84   0.68639  -18.4127
 3.45000    1.84     1.84   0.68947  -18.4128
 3.50000    1.84     1.84   0.68957  -18.4130
 3.55000    1.84     1.84   0.68777  -18.4127
 3.60000    1.84     1.84   0.68188  -18.4104
 3.65000    1.84     1.84   0.68305  -18.4117
 3.70000    1.84     1.84   0.68409  -18.4110
 3.75000    1.84     1.84   0.68219  -18.4116
 3.80000    1.84     1.84   0.68141  -18.4097
 3.85000    1.84     1.84   0.68284  -18.4103
 3.90000    1.84     1.84   0.68485  -18.4100
 3.95000    1.84     1.84   0.68232  -18.4104
 4.00000    1.84     1.84   0.68245  -18.4098
 4.05000    1.84     1.84   0.68242  -18.4095
 4.10000    1.84     1.84   0.68449  -18.4100
 4.15000    1.84     1.84   0.68347  -18.4094
 4.20000    1.84     1.84   0.68078  -18.4083
 4.25000    1.84     1.84   0.68235  -18.4077
 4.30000    1.84     1.84   0.67984  -18.4090
 4.35000    1.84     1.84   0.68229  -18.4082
 4.40000    1.84     1.84   0.68576  -18.4087
 4.45000    1.84     1.84   0.68250  -18.4077
 4.50000    1.84     1.84   0.68373  -18.4072
 4.55000    1.84     1.84   0.68302  -18.4068
 4.60000    1.84     1.84   0.68342  -18.4072
 4.65000    1.84     1.84   0.67997  -18.4059
 4.70000    1.84     1.84   0.68203  -18.4062
 4.75000    1.84     1.84   0.68141  -18.4066
 4.80000    1.84     1.84   0.68044  -18.4057
 4.85000    1.84     1.84   0.68002  -18.4059
 4.90000    1.84     1.84   0.67989  -18.4055
 4.95000    1.84     1.84   0.67984  -18.4061
 5.00000    1.84     1.84   0.68005  -18.4055
 5.05000    1.84     1.84   0.68031  -18.4056
 5.10000    1.84     1.84   0.67874  -18.4058
 5.15000    1.84     1.84   0.67491  -18.4036
 5.20000    1.84     1.84   0.67608  -18.4047
 5.25000    1.84     1.84   0.67595  -18.4040
 5.30000    1.84     1.84   0.67963  -18.4045
 5.35000    1.84     1.84   0.67900  -18.4040
 5.40000    1.84     1.84   0.68195  -18.4040
 5.45000    1.84     1.84   0.67801  -18.4039
 5.50000    1.84     1.84   0.67898  -18.4038
 5.55000    1.84     1.84   0.67979  -18.4038
 5.60000    1.84     1.84   0.67806  -18.4030
 5.65000    1.84     1.84   0.67955  -18.4031
 5.70000    1.84     1.84   0.67371  -18.4031
 5.75000    1.84     1.84   0.67277  -18.4025
 5.80000    1.84     1.84   0.67373  -18.4027
 5.85000    1.84     1.84   0.67130  -18.4025
 5.90000    1.84     1.84   0.67206  -18.4021
 5.95000    1.84     1.84   0.67264  -18.4021
 6.00000    1.84     1.84   0.67227  -18.4017
 6.05000    1.84     1.84   0.67193  -18.4022
 6.10000    1.84     1.84   0.66883  -18.4012
 6.15000    1.84     1.84   0.67018  -18.4005
 6.20000    1.84     1.84   0.66896  -18.4013
 6.25000    1.84     1.84   0.67055  -18.4014
 6.30000    1.84     1.84   0.66778  -18.4013
 6.35000    1.84     1.84   0.67042  -18.4015
 6.40000    1.84     1.84   0.66783  -18.4009
 6.45000    1.84     1.84   0.66695  -18.4003
 6.50000    1.84     1.84   0.66953  -18.4007
 6.55000    1.84     1.84   0.66937  -18.4006
 6.60000    1.84     1.84   0.66903  -18.3995
 6.65000    1.84     1.84   0.66935  -18.4001
 6.70000    1.84     1.84   0.66815  -18.4003
 6.75000    1.84     1.84   0.67042  -18.4005
 6.80000    1.84     1.84   0.66778  -18.3989
 6.85000    1.84     1.84   0.66760  -18.3989
 6.90000    1.84     1.84   0.67055  -18.3987
 6.95000    1.84     1.84   0.67162  -18.3992
 7.00000    1.84     1.84   0.67078  -18.3990
 7.00000    1.84     1.84   0.66796  -18.3975
 6.95000    1.84     1.84   0.66901  -18.3979
 6.90000    1.84     1.84   0.67279  -18.3990
 6.85000    1.84     1.84   0.67418  -18.3989
 6.80000    1.84     1.84   0.67248  -18.3986
 6.75000    1.84     1.84   0.67321  -18.3992
 6.70000    1.84     1.84   0.67329  -18.3996
 6.65000    1.84     1.84   0.67535  -18.3990
 6.60000    1.84     1.84   0.67326  -18.3992
 6.55000    1.84     1.84   0.67172  -18.3985
 6.50000    1.84     1.84   0.67457  -18.3986
 6.45000    1.84     1.84   0.67749  -18.4005
 6.40000    1.84     1.84   0.67425  -18.3995
 6.35000    1.84     1.84   0.67308  -18.3998
 6.30000    1.84     1.84   0.67540  -18.3989
 6.25000    1.84     1.84   0.67582  -18.4002
 6.20000    1.84     1.84   0.67619  -18.4003
 6.15000    1.84     1.84   0.67817  -18.4007
 6.10000    1.84     1.84   0.67684  -18.4001
 6.05000    1.84     1.84   0.67681  -18.4000
 6.00000    1.84     1.84   0.67219  -18.3989
 5.95000    1.84     1.84   0.67718  -18.4002
 5.90000    1.84     1.84   0.67530  -18.4006
 5.85000    1.84     1.84   0.67509  -18.4000
 5.80000    1.84     1.84   0.67592  -18.4010
 5.75000    1.84     1.84   0.67600  -18.4011
 5.70000    1.84     1.84   0.67895  -18.4014
 5.65000    1.84     1.84   0.67733  -18.4015
 5.60000    1.84     1.84   0.67861  -18.4011
 5.55000    1.84     1.84   0.67890  -18.4018
 5.50000    1.84     1.84   0.67603  -18.3995
 5.45000    1.84     1.84   0.67796  -18.4012
 5.40000    1.84     1.84   0.67793  -18.4016
 5.35000    1.84     1.84   0.67898  -18.4021
 5.30000    1.84     1.84   0.67898  -18.4027
 5.25000    1.84     1.84   0.67945  -18.4020
 5.20000    1.84     1.84   0.67833  -18.4018
 5.15000    1.84     1.84   0.67950  -18.4022
 5.10000    1.84     1.84   0.67598  -18.4022
 5.05000    1.84     1.84   0.67898  -18.4024
 5.00000    1.84     1.84   0.67713  -18.4027
 4.95000    1.84     1.84   0.67809  -18.4033
 4.90000    1.84     1.84   0.67775  -18.4028
 4.85000    1.84     1.84   0.68005  -18.4036
 4.80000    1.84     1.84   0.67877  -18.4023
 4.75000    1.84     1.84   0.68091  -18.4034
 4.70000    1.84     1.84   0.68034  -18.4028
 4.65000    1.84     1.84   0.67913  -18.4036
 4.60000    1.84     1.84   0.67838  -18.4031
 4.55000    1.84     1.84   0.68268  -18.4037
 4.50000    1.84     1.84   0.67812  -18.4011
 4.45000    1.84     1.84   0.68415  -18.4043
 4.40000    1.84     1.84   0.68221  -18.4046
 4.35000    1.84     1.84   0.68365  -18.4043
 4.30000    1.84     1.84   0.68274  -18.4038
 4.25000    1.84     1.84   0.68101  -18.4041
 4.20000    1.84     1.84   0.68075  -18.4046
 4.15000    1.84     1.84   0.68336  -18.4042
 4.10000    1.84     1.84   0.68201  -18.4054
 4.05000    1.84     1.84   0.68313  -18.4049
 4.00000    1.84     1.84   0.68276  -18.4058
 3.95000    1.84     1.84   0.68412  -18.4065
 3.90000    1.84     1.84   0.68482  -18.4061
 3.85000    1.84     1.84   0.68125  -18.4051
 3.80000    1.84     1.84   0.68412  -18.4066
 3.75000    1.84     1.84   0.68707  -18.4070
 3.70000    1.84     1.84   0.68563  -18.4073
 3.65000    1.84     1.84   0.68475  -18.4066
 3.60000    1.84     1.84   0.68626  -18.4077
 3.55000    1.84     1.84   0.68788  -18.4083
 3.50000    1.84     1.84   0.68770  -18.4078
 3.45000    1.84     1.84   0.68780  -18.4077
 3.40000    1.84     1.84   0.68678  -18.4086
 3.35000    1.84     1.84   0.68916  -18.4088
 3.30000    1.84     1.84   0.68751  -18.4084
 3.25000    1.84     1.84   0.69002  -18.4098
 3.20000    1.84     1.84   0.69127  -18.4107
 3.15000    1.84     1.84   0.68743  -18.4099
 3.10000    1.84     1.84   0.68529  -18.4099
 3.05000    1.84     1.84   0.68905  -18.4108
 3.00000    1.84     1.84   0.68986  -18.4119
 2.95000    1.84     1.84   0.68697  -18.4116
 2.90000    1.84     1.84   0.69065  -18.4123
 2.85000    1.84     1.84   0.68984  -18.4129
 2.80000    1.84     1.84   0.68911  -18.4133
 2.75000    1.84     1.84   0.68905  -18.4135
 2.70000    1.84     1.84   0.68957  -18.4140
 2.65000    1.84     1.84   0.68989  -18.4143
 2.60000    1.84     1.84   0.69018  -18.4148
 2.55000    1.84     1.84   0.69224  -18.4155
 2.50000    1.84     1.84   0.68882  -18.4147
 2.45000    1.84     1.84   0.69020  -18.4156
 2.40000    1.84     1.84   0.69307  -18.4163
 2.35000    1.84     1.84   0.69273  -18.4169
 2.30000    1.84     1.84   0.69326  -18.4185
 2.25000    1.84     1.84   0.69521  -18.4188
 2.20000    1.84     1.84   0.69276  -18.4189
 2.15000    1.84     1.84   0.69284  -18.4194
 2.10000    1.84     1.84   0.69255  -18.4202
 2.05000    1.84     1.84   0.69258  -18.4212
 2.00000    1.84     1.84   0.69396  -18.4217
 1.95000    1.84     1.84   0.69093  -18.4225
 1.90000    1.84     1.84   0.69464  -18.4244
 1.85000    1.84     1.84   0.69242  -18.4234
 1.80000    1.84     1.84   0.69315  -18.4248
 1.75000    1.84     1.84   0.69190  -18.4265
 1.70000    1.84     1.84   0.69260  -18.4273
 1.65000    1.84     1.84   0.69127  -18.4288
 1.60000    1.84     1.84   0.69281  -18.4301
 1.55000    1.84     1.84   0.69036  -18.4311
 1.50000    1.84     1.84   0.68788  -18.4322
 1.45000    1.84     1.84   0.68741  -18.4343
 1.40000    1.84     1.84   0.68639  -18.4362
 1.35000    1.84     1.84   0.68425  -18.4379
 1.30000    1.84     1.84   0.67979  -18.4387
 1.25000    1.84     1.84   0.68148  -18.4414
 1.20000    1.84     1.84   0.67707  -18.4445
 1.15000    1.84     1.84   0.67337  -18.4473
 1.10000    1.84     1.84   0.66363  -18.4492
 1.05000    1.84     1.84   0.65614  -18.4517
 1.00000    1.84     1.84   0.64526  -18.4542
 0.95000    1.84     1.84   0.63390  -18.4568
 0.90000    1.84     1.84   0.62104  -18.4584
 0.85000    1.84     1.84   0.60454  -18.4598
 0.80000    1.84     1.84   0.59157  -18.4604
 0.75000    1.84     1.84   0.57434  -18.4590
 0.70000    1.84     1.84   0.55921  -18.4586
 0.65000    1.84     1.84   0.54660  -18.4568
 0.60000    1.84     1.84   0.52929  -18.4547
 0.55000    1.84     1.84   0.51669  -18.4514
 0.50000    1.84     1.84   0.50385  -18.4494
 0.45000    1.84     1.84   0.48769  -18.4444
 0.40000    1.84     1.84   0.47720  -18.4394
 0.35000    1.84     1.84   0.46726  -18.4310
 0.30000    1.84     1.84   0.46668  -18.4232
 0.25000    1.84     1.84   0.47623  -18.4138
 0.20000    1.84     1.84   0.49583  -18.4098
 0.15000    1.84     1.84   0.50721  -18.4088
 0.10000    1.84     1.84   0.51001  -18.4049
 0.05000    1.84     1.84   0.51820  -18.4063
 -0.00000    1.84     1.84   0.52026  -18.4080
