 Field[T] Tsmpl[K] Tcntr[K] Signal   Mirror[MM]
 0.00000    1.85     1.85   0.07768  -18.6876
 0.10000    1.85     1.85   0.07745  -18.6867
 0.20000    1.85     1.85   0.07770  -18.6862
 0.30000    1.85     1.85   0.07674  -18.6862
 0.40000    1.85     1.85   0.07660  -18.6858
 0.50000    1.85     1.85   0.07435  -18.6850
 0.60000    1.85     1.85   0.07229  -18.6867
 0.70000    1.85     1.85   0.07210  -18.6898
 0.80000    1.85     1.85   0.07255  -18.6921
 0.90000    1.85     1.85   0.07355  -18.6941
 1.00000    1.85     1.85   0.07517  -18.6948
 1.10000    1.85     1.85   0.07604  -18.6949
 1.20000    1.85     1.85   0.07686  -18.6942
 1.30000    1.85     1.85   0.07825  -18.6944
 1.40000    1.85     1.85   0.07942  -18.6936
 1.50000    1.85     1.85   0.07948  -18.6928
 1.60000    1.85     1.85   0.08009  -18.6920
 1.70000    1.85     1.85   0.08027  -18.6913
 1.80000    1.85     1.85   0.07993  -18.6908
 1.90000    1.85     1.85   0.07974  -18.6901
 2.00000    1.85     1.85   0.08014  -18.6896
 2.10000    1.85     1.85   0.08017  -18.6894
 2.20000    1.85     1.85   0.08059  -18.6884
 2.30000    1.85     1.85   0.08033  -18.6883
 2.40000    1.85     1.85   0.08005  -18.6881
 2.50000    1.85     1.85   0.07980  -18.6871
 2.60000    1.85     1.85   0.07973  -18.6865
 2.70000    1.85     1.85   0.07998  -18.6868
 2.80000    1.85     1.85   0.07991  -18.6867
 2.90000    1.85     1.85   0.07976  -18.6861
 3.00000    1.85     1.85   0.07959  -18.6863
 3.10000    1.85     1.85   0.07948  -18.6864
 3.20000    1.85     1.85   0.07938  -18.6854
 3.30000    1.85     1.85   0.07938  -18.6855
 3.40000    1.85     1.85   0.07880  -18.6848
 3.50000    1.85     1.85   0.07949  -18.6856
 3.60000    1.85     1.85   0.07885  -18.6851
 3.70000    1.85     1.85   0.07898  -18.6853
 3.80000    1.85     1.85   0.07908  -18.6856
 3.90000    1.85     1.85   0.07817  -18.6844
 4.00000    1.85     1.85   0.07801  -18.6849
 4.10000    1.85     1.85   0.07890  -18.6847
 4.20000    1.85     1.85   0.07857  -18.6847
 4.30000    1.85     1.85   0.07809  -18.6849
 4.40000    1.85     1.85   0.07813  -18.6847
 4.50000    1.85     1.85   0.07783  -18.6840
 4.60000    1.85     1.85   0.07763  -18.6841
 4.70000    1.85     1.85   0.07770  -18.6839
 4.80000    1.85     1.85   0.07761  -18.6834
 4.90000    1.85     1.85   0.07713  -18.6839
 5.00000    1.85     1.85   0.07771  -18.6841
 5.10000    1.85     1.85   0.07733  -18.6835
 5.20000    1.85     1.85   0.07688  -18.6837
 5.30000    1.85     1.85   0.07643  -18.6831
 5.40000    1.85     1.85   0.07697  -18.6833
 5.50000    1.85     1.85   0.07668  -18.6836
 5.60000    1.85     1.85   0.07676  -18.6834
 5.70000    1.85     1.85   0.07432  -18.6825
 5.80000    1.85     1.85   0.07635  -18.6830
 5.90000    1.85     1.85   0.07665  -18.6839
 6.00000    1.85     1.85   0.07644  -18.6832
 6.10000    1.85     1.85   0.07655  -18.6835
 6.20000    1.85     1.85   0.07581  -18.6834
 6.30000    1.85     1.85   0.07571  -18.6835
 6.40000    1.85     1.85   0.07635  -18.6835
 6.50000    1.85     1.85   0.07583  -18.6833
 6.60000    1.85     1.85   0.07554  -18.6833
 6.70000    1.85     1.85   0.07564  -18.6827
 6.80000    1.85     1.85   0.07519  -18.6829
 6.90000    1.85     1.85   0.07522  -18.6828
 7.00000    1.85     1.85   0.07513  -18.6828
 7.00000    1.85     1.85   0.07546  -18.6828
 6.90000    1.85     1.85   0.07535  -18.6828
 6.80000    1.85     1.85   0.07503  -18.6830
 6.70000    1.85     1.85   0.07528  -18.6828
 6.60000    1.85     1.85   0.07535  -18.6828
 6.50000    1.85     1.85   0.07547  -18.6831
 6.40000    1.85     1.85   0.07558  -18.6824
 6.30000    1.85     1.85   0.07534  -18.6828
 6.20000    1.85     1.85   0.07555  -18.6825
 6.10000    1.85     1.85   0.07535  -18.6824
 6.00000    1.85     1.85   0.07568  -18.6825
 5.90000    1.85     1.85   0.07571  -18.6822
 5.80000    1.85     1.85   0.07525  -18.6824
 5.70000    1.85     1.85   0.07625  -18.6824
 5.60000    1.85     1.85   0.07551  -18.6825
 5.50000    1.85     1.85   0.07586  -18.6824
 5.40000    1.85     1.85   0.07582  -18.6827
 5.30000    1.85     1.85   0.07580  -18.6829
 5.20000    1.85     1.85   0.07615  -18.6827
 5.10000    1.85     1.85   0.07649  -18.6820
 5.00000    1.85     1.85   0.07592  -18.6819
 4.90000    1.85     1.85   0.07649  -18.6821
 4.80000    1.85     1.85   0.07619  -18.6824
 4.70000    1.85     1.85   0.07655  -18.6823
 4.60000    1.85     1.85   0.07643  -18.6820
 4.50000    1.85     1.85   0.07661  -18.6826
 4.40000    1.85     1.85   0.07652  -18.6826
 4.30000    1.85     1.85   0.07619  -18.6827
 4.20000    1.85     1.85   0.07596  -18.6823
 4.10000    1.85     1.85   0.07619  -18.6825
 4.00000    1.85     1.85   0.07600  -18.6827
 3.90000    1.85     1.85   0.07681  -18.6824
 3.80000    1.85     1.85   0.07657  -18.6827
 3.70000    1.85     1.85   0.07676  -18.6829
 3.60000    1.85     1.85   0.07673  -18.6827
 3.50000    1.85     1.85   0.07722  -18.6830
 3.40000    1.85     1.85   0.07670  -18.6833
 3.30000    1.85     1.85   0.07702  -18.6832
 3.20000    1.85     1.85   0.07668  -18.6833
 3.10000    1.85     1.85   0.07752  -18.6831
 3.00000    1.85     1.85   0.07739  -18.6837
 2.90000    1.85     1.85   0.07767  -18.6839
 2.80000    1.85     1.85   0.07745  -18.6841
 2.70000    1.85     1.85   0.07759  -18.6843
 2.60000    1.85     1.85   0.07673  -18.6839
 2.50000    1.85     1.85   0.07737  -18.6851
 2.40000    1.85     1.85   0.07745  -18.6853
 2.30000    1.85     1.85   0.07807  -18.6852
 2.20000    1.85     1.85   0.07795  -18.6857
 2.10000    1.85     1.85   0.07832  -18.6862
 2.00000    1.85     1.85   0.07800  -18.6864
 1.90000    1.85     1.85   0.07795  -18.6865
 1.80000    1.85     1.85   0.07764  -18.6870
 1.70000    1.85     1.85   0.07761  -18.6878
 1.60000    1.85     1.85   0.07752  -18.6884
 1.50000    1.85     1.85   0.07718  -18.6890
 1.40000    1.85     1.85   0.07691  -18.6909
 1.30000    1.85     1.85   0.07639  -18.6914
 1.20000    1.85     1.85   0.07506  -18.6920
 1.10000    1.85     1.85   0.07360  -18.6919
 1.00000    1.85     1.85   0.07177  -18.6915
 0.90000    1.85     1.85   0.07078  -18.6908
 0.80000    1.85     1.85   0.07018  -18.6896
 0.70000    1.85     1.85   0.06922  -18.6874
 0.60000    1.85     1.85   0.06923  -18.6840
 0.50000    1.85     1.85   0.07142  -18.6819
 0.40000    1.85     1.85   0.07400  -18.6827
 0.30000    1.85     1.85   0.07466  -18.6835
 0.20000    1.85     1.85   0.07508  -18.6843
 0.10000    1.85     1.85   0.07491  -18.6843
 -0.00000    1.85     1.85   0.07552  -18.6850
 -0.10000    1.85     1.85   0.07559  -18.6848
 -0.20000    1.85     1.85   0.07520  -18.6840
 -0.30000    1.85     1.85   0.07505  -18.6834
 -0.40000    1.85     1.85   0.07476  -18.6828
 -0.50000    1.85     1.85   0.07298  -18.6826
 -0.60000    1.85     1.85   0.07078  -18.6852
 -0.70000    1.85     1.85   0.07062  -18.6880
 -0.80000    1.85     1.85   0.07138  -18.6902
 -0.90000    1.85     1.85   0.07272  -18.6918
 -1.00000    1.85     1.85   0.07396  -18.6929
 -1.10000    1.85     1.85   0.07606  -18.6931
 -1.20000    1.85     1.85   0.07732  -18.6935
 -1.30000    1.85     1.85   0.07843  -18.6929
 -1.40000    1.85     1.85   0.07915  -18.6921
 -1.50000    1.85     1.85   0.07960  -18.6912
 -1.60000    1.85     1.85   0.08089  -18.6909
 -1.70000    1.85     1.85   0.08088  -18.6895
 -1.80000    1.85     1.85   0.08144  -18.6890
 -1.90000    1.85     1.85   0.08176  -18.6889
 -2.00000    1.85     1.85   0.08174  -18.6881
 -2.10000    1.85     1.85   0.08169  -18.6878
 -2.20000    1.85     1.85   0.08178  -18.6869
 -2.30000    1.85     1.85   0.08173  -18.6865
 -2.40000    1.85     1.85   0.08201  -18.6863
 -2.50000    1.85     1.85   0.08238  -18.6858
 -2.60000    1.85     1.85   0.08237  -18.6853
 -2.70000    1.85     1.85   0.08263  -18.6848
 -2.80000    1.85     1.85   0.08273  -18.6850
 -2.90000    1.85     1.85   0.08291  -18.6848
 -3.00000    1.85     1.85   0.08322  -18.6846
 -3.10000    1.85     1.85   0.08263  -18.6840
 -3.20000    1.85     1.85   0.08351  -18.6845
 -3.30000    1.85     1.85   0.08355  -18.6847
 -3.40000    1.85     1.85   0.08372  -18.6845
 -3.50000    1.85     1.85   0.08405  -18.6842
 -3.60000    1.85     1.85   0.08394  -18.6838
 -3.70000    1.85     1.85   0.08349  -18.6839
 -3.80000    1.85     1.85   0.08381  -18.6841
 -3.90000    1.85     1.85   0.08316  -18.6837
 -4.00000    1.85     1.85   0.08347  -18.6838
 -4.10000    1.85     1.85   0.08349  -18.6836
 -4.20000    1.85     1.85   0.08405  -18.6841
 -4.30000    1.85     1.85   0.08380  -18.6837
 -4.40000    1.85     1.85   0.08395  -18.6835
 -4.50000    1.85     1.85   0.08436  -18.6832
 -4.60000    1.85     1.85   0.08437  -18.6832
 -4.70000    1.85     1.85   0.08429  -18.6828
 -4.80000    1.85     1.85   0.08408  -18.6828
 -4.90000    1.85     1.85   0.08357  -18.6822
 -5.00000    1.85     1.85   0.08425  -18.6820
 -5.10000    1.85     1.85   0.08427  -18.6823
 -5.20000    1.85     1.85   0.08456  -18.6822
 -5.30000    1.85     1.85   0.08463  -18.6822
 -5.40000    1.85     1.85   0.08471  -18.6823
 -5.50000    1.85     1.85   0.08452  -18.6822
 -5.60000    1.85     1.85   0.08492  -18.6820
 -5.70000    1.85     1.85   0.08465  -18.6819
 -5.80000    1.85     1.85   0.08517  -18.6818
 -5.90000    1.85     1.85   0.08477  -18.6815
 -6.00000    1.85     1.85   0.08480  -18.6816
 -6.10000    1.85     1.85   0.08521  -18.6814
 -6.20000    1.85     1.85   0.08511  -18.6815
 -6.30000    1.85     1.85   0.08561  -18.6815
 -6.40000    1.85     1.85   0.08519  -18.6813
 -6.50000    1.85     1.85   0.08530  -18.6813
 -6.60000    1.85     1.85   0.08557  -18.6815
 -6.70000    1.85     1.85   0.08567  -18.6811
 -6.80000    1.85     1.85   0.08584  -18.6812
 -6.90000    1.85     1.85   0.08580  -18.6810
 -7.00000    1.85     1.85   0.08566  -18.6810
 -7.00000    1.85     1.85   0.08534  -18.6807
 -6.90000    1.85     1.85   0.08597  -18.6809
 -6.80000    1.85     1.85   0.08572  -18.6805
 -6.70000    1.85     1.85   0.08542  -18.6809
 -6.60000    1.85     1.85   0.08510  -18.6809
 -6.50000    1.85     1.85   0.08529  -18.6807
 -6.40000    1.85     1.85   0.08473  -18.6806
 -6.30000    1.85     1.85   0.08495  -18.6812
 -6.20000    1.85     1.85   0.08507  -18.6811
 -6.10000    1.85     1.85   0.08455  -18.6811
 -6.00000    1.85     1.85   0.08469  -18.6811
 -5.90000    1.85     1.85   0.08457  -18.6812
 -5.80000    1.85     1.85   0.08444  -18.6812
 -5.70000    1.85     1.85   0.08424  -18.6811
 -5.60000    1.85     1.85   0.08428  -18.6809
 -5.50000    1.85     1.85   0.08419  -18.6809
 -5.40000    1.85     1.85   0.08411  -18.6809
 -5.30000    1.85     1.85   0.08375  -18.6812
 -5.20000    1.85     1.85   0.08386  -18.6812
 -5.10000    1.85     1.85   0.08081  -18.6800
 -5.00000    1.85     1.85   0.08302  -18.6805
 -4.90000    1.85     1.85   0.08341  -18.6811
 -4.80000    1.85     1.85   0.08335  -18.6809
 -4.70000    1.85     1.85   0.08322  -18.6809
 -4.60000    1.85     1.85   0.08293  -18.6809
 -4.50000    1.85     1.85   0.08319  -18.6810
 -4.40000    1.85     1.85   0.08256  -18.6807
 -4.30000    1.85     1.85   0.08272  -18.6814
 -4.20000    1.85     1.85   0.08229  -18.6812
 -4.10000    1.85     1.85   0.08247  -18.6818
 -4.00000    1.85     1.85   0.08202  -18.6807
 -3.90000    1.85     1.85   0.08181  -18.6814
 -3.80000    1.85     1.85   0.08271  -18.6818
 -3.70000    1.85     1.85   0.08254  -18.6818
 -3.60000    1.85     1.85   0.08182  -18.6820
 -3.50000    1.85     1.85   0.08172  -18.6818
 -3.40000    1.85     1.85   0.08218  -18.6814
 -3.30000    1.85     1.85   0.08200  -18.6817
 -3.20000    1.85     1.85   0.08191  -18.6820
 -3.10000    1.85     1.85   0.08181  -18.6827
 -3.00000    1.85     1.85   0.08130  -18.6822
 -2.90000    1.85     1.85   0.08168  -18.6824
 -2.80000    1.85     1.85   0.08191  -18.6830
 -2.70000    1.85     1.85   0.08149  -18.6836
 -2.60000    1.85     1.85   0.08175  -18.6834
 -2.50000    1.85     1.85   0.08095  -18.6838
 -2.40000    1.85     1.85   0.08096  -18.6837
 -2.30000    1.85     1.85   0.08097  -18.6843
 -2.20000    1.85     1.85   0.08017  -18.6831
 -2.10000    1.85     1.85   0.07958  -18.6843
 -2.00000    1.85     1.85   0.07985  -18.6848
 -1.90000    1.85     1.85   0.07970  -18.6853
 -1.80000    1.85     1.85   0.07942  -18.6855
 -1.70000    1.85     1.85   0.07890  -18.6859
 -1.60000    1.85     1.85   0.07849  -18.6869
 -1.50000    1.85     1.85   0.07801  -18.6881
 -1.40000    1.85     1.85   0.07767  -18.6884
 -1.30000    1.85     1.85   0.07682  -18.6893
 -1.20000    1.85     1.85   0.07560  -18.6899
 -1.10000    1.85     1.85   0.07382  -18.6902
 -1.00000    1.85     1.85   0.07240  -18.6899
 -0.90000    1.85     1.85   0.07130  -18.6889
 -0.80000    1.85     1.85   0.06974  -18.6873
 -0.70000    1.85     1.85   0.06880  -18.6851
 -0.60000    1.85     1.85   0.06889  -18.6826
 -0.50000    1.85     1.85   0.07069  -18.6802
 -0.40000    1.85     1.85   0.07322  -18.6807
 -0.30000    1.85     1.85   0.07394  -18.6814
 -0.20000    1.85     1.85   0.07400  -18.6817
 -0.10000    1.85     1.85   0.07425  -18.6820
 0.00000    1.85     1.85   0.07442  -18.6822
