 Field[T] Tsmpl[K] Tcntr[K] Signal   Mirror[MM]
 0.00000    1.86     1.86   0.06556  -18.7305
 0.10000    1.86     1.86   0.06554  -18.7307
 0.20000    1.86     1.86   0.06551  -18.7296
 0.30000    1.86     1.86   0.06542  -18.7290
 0.40000    1.86     1.86   0.06529  -18.7280
 0.50000    1.86     1.86   0.06516  -18.7272
 0.60000    1.86     1.86   0.06492  -18.7259
 0.70000    1.86     1.86   0.06465  -18.7249
 0.80000    1.86     1.86   0.06434  -18.7238
 0.90000    1.86     1.86   0.06387  -18.7229
 1.00000    1.86     1.86   0.06333  -18.7228
 1.10000    1.86     1.86   0.06276  -18.7239
 1.20000    1.86     1.86   0.06255  -18.7256
 1.30000    1.86     1.86   0.06257  -18.7269
 1.40000    1.86     1.86   0.06291  -18.7282
 1.50000    1.86     1.86   0.06343  -18.7284
 1.60000    1.86     1.86   0.06390  -18.7280
 1.70000    1.86     1.86   0.06418  -18.7268
 1.80000    1.86     1.86   0.06440  -18.7256
 1.90000    1.86     1.86   0.06455  -18.7240
 2.00000    1.86     1.86   0.06460  -18.7226
 2.10000    1.86     1.86   0.06451  -18.7210
 2.20000    1.86     1.86   0.06443  -18.7200
 2.30000    1.86     1.86   0.06434  -18.7192
 2.40000    1.86     1.86   0.06421  -18.7187
 2.50000    1.86     1.86   0.06415  -18.7178
 2.60000    1.86     1.86   0.06404  -18.7173
 2.70000    1.86     1.86   0.06392  -18.7167
 2.80000    1.86     1.86   0.06378  -18.7160
 2.90000    1.86     1.86   0.06367  -18.7160
 3.00000    1.86     1.86   0.06351  -18.7142
 3.10000    1.86     1.86   0.06349  -18.7143
 3.20000    1.86     1.86   0.06341  -18.7148
 3.30000    1.86     1.86   0.06330  -18.7143
 3.40000    1.86     1.86   0.06324  -18.7143
 3.50000    1.86     1.86   0.06316  -18.7140
 3.60000    1.86     1.86   0.06306  -18.7139
 3.70000    1.86     1.86   0.06302  -18.7133
 3.80000    1.86     1.86   0.06295  -18.7128
 3.90000    1.86     1.86   0.06286  -18.7129
 4.00000    1.86     1.86   0.06278  -18.7125
 4.10000    1.86     1.86   0.06275  -18.7124
 4.20000    1.86     1.86   0.06267  -18.7123
 4.30000    1.86     1.86   0.06266  -18.7121
 4.40000    1.86     1.86   0.06259  -18.7118
 4.50000    1.86     1.86   0.06251  -18.7119
 4.60000    1.86     1.86   0.06245  -18.7104
 4.70000    1.86     1.86   0.06242  -18.7117
 4.80000    1.86     1.86   0.06237  -18.7114
 4.90000    1.86     1.86   0.06233  -18.7112
 5.00000    1.86     1.86   0.06232  -18.7114
 5.10000    1.86     1.86   0.06221  -18.7104
 5.20000    1.86     1.86   0.06221  -18.7105
 5.30000    1.86     1.86   0.06216  -18.7103
 5.40000    1.86     1.86   0.06213  -18.7102
 5.50000    1.86     1.86   0.06207  -18.7103
 5.60000    1.86     1.86   0.06199  -18.7104
 5.70000    1.86     1.86   0.06195  -18.7102
 5.80000    1.86     1.86   0.06193  -18.7103
 5.90000    1.86     1.86   0.06190  -18.7100
 6.00000    1.86     1.86   0.06185  -18.7098
 6.10000    1.86     1.86   0.06182  -18.7098
 6.20000    1.86     1.86   0.06178  -18.7097
 6.30000    1.86     1.86   0.06176  -18.7096
 6.40000    1.86     1.86   0.06172  -18.7093
 6.50000    1.86     1.86   0.06169  -18.7092
 6.60000    1.86     1.86   0.06169  -18.7094
 6.70000    1.86     1.86   0.06164  -18.7090
 6.80000    1.86     1.86   0.06164  -18.7090
 6.90000    1.86     1.86   0.06157  -18.7088
 7.00000    1.86     1.86   0.06154  -18.7085
 7.00000    1.86     1.86   0.06155  -18.7084
 6.90000    1.86     1.86   0.06159  -18.7090
 6.80000    1.86     1.86   0.06158  -18.7091
 6.70000    1.86     1.86   0.06162  -18.7092
 6.60000    1.86     1.86   0.06148  -18.7065
 6.50000    1.86     1.86   0.06172  -18.7088
 6.40000    1.86     1.86   0.06176  -18.7091
 6.30000    1.86     1.86   0.06181  -18.7094
 6.20000    1.86     1.86   0.06187  -18.7098
 6.10000    1.86     1.86   0.06189  -18.7099
 6.00000    1.86     1.86   0.06195  -18.7097
 5.90000    1.86     1.86   0.06193  -18.7104
 5.80000    1.86     1.86   0.06200  -18.7105
 5.70000    1.86     1.86   0.06205  -18.7104
 5.60000    1.86     1.86   0.06208  -18.7106
 5.50000    1.86     1.86   0.06213  -18.7108
 5.40000    1.86     1.86   0.06214  -18.7107
 5.30000    1.86     1.86   0.06216  -18.7111
 5.20000    1.86     1.86   0.06221  -18.7106
 5.10000    1.86     1.86   0.06223  -18.7106
 5.00000    1.86     1.86   0.06229  -18.7110
 4.90000    1.86     1.86   0.06235  -18.7109
 4.80000    1.86     1.86   0.06237  -18.7111
 4.70000    1.86     1.86   0.06247  -18.7118
 4.60000    1.86     1.86   0.06250  -18.7117
 4.50000    1.86     1.86   0.06254  -18.7119
 4.40000    1.86     1.86   0.06255  -18.7115
 4.30000    1.86     1.86   0.06265  -18.7118
 4.20000    1.86     1.86   0.06274  -18.7125
 4.10000    1.86     1.86   0.06281  -18.7123
 4.00000    1.86     1.86   0.06290  -18.7124
 3.90000    1.86     1.86   0.06293  -18.7129
 3.80000    1.86     1.86   0.06294  -18.7118
 3.70000    1.86     1.86   0.06311  -18.7124
 3.60000    1.86     1.86   0.06319  -18.7129
 3.50000    1.86     1.86   0.06324  -18.7134
 3.40000    1.86     1.86   0.06333  -18.7132
 3.30000    1.86     1.86   0.06319  -18.7133
 3.20000    1.86     1.86   0.06341  -18.7137
 3.10000    1.86     1.86   0.06359  -18.7148
 3.00000    1.86     1.86   0.06371  -18.7151
 2.90000    1.86     1.86   0.06378  -18.7150
 2.80000    1.86     1.86   0.06387  -18.7158
 2.70000    1.86     1.86   0.06399  -18.7160
 2.60000    1.86     1.86   0.06414  -18.7165
 2.50000    1.86     1.86   0.06420  -18.7170
 2.40000    1.86     1.86   0.06430  -18.7176
 2.30000    1.86     1.86   0.06444  -18.7187
 2.20000    1.86     1.86   0.06457  -18.7196
 2.10000    1.86     1.86   0.06466  -18.7209
 2.00000    1.86     1.86   0.06467  -18.7220
 1.90000    1.86     1.86   0.06465  -18.7232
 1.80000    1.86     1.86   0.06452  -18.7246
 1.70000    1.86     1.86   0.06434  -18.7261
 1.60000    1.86     1.86   0.06405  -18.7273
 1.50000    1.86     1.86   0.06367  -18.7272
 1.40000    1.86     1.86   0.06323  -18.7274
 1.30000    1.86     1.86   0.06287  -18.7262
 1.20000    1.86     1.86   0.06286  -18.7245
 1.10000    1.86     1.86   0.06304  -18.7229
 1.00000    1.86     1.86   0.06357  -18.7220
 0.90000    1.86     1.86   0.06421  -18.7215
 0.80000    1.86     1.86   -0.04409  -18.4538
 0.70000    1.86     1.86   -0.04405  -18.4535
 0.60000    1.86     1.86   0.05881  -18.7239
 0.50000    1.86     1.86   0.06340  -18.7258
 0.40000    1.86     1.86   0.06561  -18.7274
 0.30000    1.86     1.86   0.06654  -18.7284
 0.20000    1.86     1.86   0.06700  -18.7290
 0.10000    1.86     1.86   0.06714  -18.7293
 -0.00000    1.86     1.86   0.06719  -18.7294
