 Field[T] Tsmpl[K] Tcntr[K] Signal   Mirror[MM]
 7.00000    1.89     1.89   0.03092  -19.4833
 6.95000    1.89     1.89   0.03081  -19.4833
 6.90000    1.89     1.89   0.03087  -19.4834
 6.85000    1.89     1.89   0.03083  -19.4835
 6.80000    1.89     1.89   0.03078  -19.4835
 6.75000    1.89     1.89   0.03086  -19.4832
 6.70000    1.89     1.89   0.03083  -19.4834
 6.65000    1.89     1.89   0.03085  -19.4836
 6.60000    1.89     1.89   0.03075  -19.4837
 6.55000    1.89     1.89   0.03081  -19.4833
 6.50000    1.89     1.89   0.03072  -19.4833
 6.45000    1.89     1.89   0.03078  -19.4831
 6.40000    1.89     1.89   0.03076  -19.4832
 6.35000    1.89     1.89   0.03069  -19.4834
 6.30000    1.89     1.89   0.03079  -19.4837
 6.25000    1.89     1.89   0.03078  -19.4837
 6.20000    1.89     1.89   0.03073  -19.4838
 6.15000    1.89     1.89   0.03072  -19.4838
 6.10000    1.89     1.89   0.03071  -19.4838
 6.05000    1.89     1.89   0.03065  -19.4834
 6.00000    1.89     1.89   0.03067  -19.4834
 5.95000    1.89     1.89   0.03066  -19.4836
 5.90000    1.89     1.89   0.03064  -19.4837
 5.85000    1.89     1.89   0.03067  -19.4837
 5.80000    1.89     1.89   0.03064  -19.4840
 5.75000    1.89     1.89   0.03058  -19.4840
 5.70000    1.89     1.89   0.03062  -19.4839
 5.65000    1.89     1.89   0.03061  -19.4839
 5.60000    1.89     1.89   0.03055  -19.4841
 5.55000    1.89     1.89   0.03056  -19.4842
 5.50000    1.89     1.89   0.03051  -19.4841
 5.45000    1.89     1.89   0.03056  -19.4841
 5.40000    1.89     1.89   0.03050  -19.4842
 5.35000    1.89     1.89   0.03056  -19.4843
 5.30000    1.89     1.89   0.03047  -19.4842
 5.25000    1.89     1.89   0.03045  -19.4844
 5.20000    1.89     1.89   0.03051  -19.4842
 5.15000    1.89     1.89   0.03039  -19.4844
 5.10000    1.89     1.89   0.03038  -19.4845
 5.05000    1.89     1.89   0.03040  -19.4846
 5.00000    1.89     1.89   0.03037  -19.4845
 4.95000    1.89     1.89   0.03037  -19.4844
 4.90000    1.89     1.89   0.03038  -19.4845
 4.85000    1.89     1.89   0.03036  -19.4846
 4.80000    1.89     1.89   0.03039  -19.4846
 4.75000    1.89     1.89   0.03036  -19.4845
 4.70000    1.89     1.89   0.03033  -19.4845
 4.65000    1.89     1.89   0.03025  -19.4845
 4.60000    1.89     1.89   0.03031  -19.4844
 4.55000    1.89     1.89   0.03033  -19.4847
 4.50000    1.89     1.89   0.03028  -19.4849
 4.45000    1.89     1.89   0.03026  -19.4847
 4.40000    1.89     1.89   0.03022  -19.4845
 4.35000    1.89     1.89   0.03022  -19.4846
 4.30000    1.89     1.89   0.03018  -19.4846
 4.25000    1.89     1.89   0.03017  -19.4848
 4.20000    1.89     1.89   0.03017  -19.4849
 4.15000    1.89     1.89   0.03011  -19.4848
 4.10000    1.89     1.89   0.03014  -19.4848
 4.05000    1.89     1.89   0.03002  -19.4847
 4.00000    1.89     1.89   0.03001  -19.4847
 3.95000    1.89     1.89   0.02997  -19.4845
 3.90000    1.89     1.89   0.02998  -19.4845
 3.85000    1.89     1.89   0.03000  -19.4845
 3.80000    1.89     1.89   0.02991  -19.4847
 3.75000    1.89     1.89   0.02994  -19.4847
 3.70000    1.89     1.89   0.02989  -19.4846
 3.65000    1.89     1.89   0.02987  -19.4847
 3.60000    1.89     1.89   0.02987  -19.4847
 3.55000    1.89     1.89   0.02981  -19.4847
 3.50000    1.89     1.89   0.02987  -19.4845
 3.45000    1.89     1.89   0.02979  -19.4845
 3.40000    1.89     1.89   0.02974  -19.4846
 3.35000    1.89     1.89   0.02974  -19.4846
 3.30000    1.89     1.89   0.02970  -19.4845
 3.25000    1.89     1.89   0.02969  -19.4843
 3.20000    1.89     1.89   0.02967  -19.4843
 3.15000    1.89     1.89   0.02962  -19.4844
 3.10000    1.89     1.89   0.02959  -19.4844
 3.05000    1.89     1.89   0.02953  -19.4844
 3.00000    1.89     1.89   0.02948  -19.4841
 2.95000    1.89     1.89   0.02953  -19.4842
 2.90000    1.89     1.89   0.02955  -19.4842
 2.85000    1.89     1.89   0.02949  -19.4839
 2.80000    1.89     1.89   0.02950  -19.4839
 2.75000    1.89     1.89   0.02944  -19.4836
 2.70000    1.89     1.89   0.02942  -19.4836
 2.65000    1.89     1.89   0.02938  -19.4836
 2.60000    1.89     1.89   0.02937  -19.4834
 2.55000    1.89     1.89   0.02932  -19.4834
 2.50000    1.89     1.89   0.02934  -19.4832
 2.45000    1.89     1.89   0.02932  -19.4831
 2.40000    1.89     1.89   0.02931  -19.4828
 2.35000    1.89     1.89   0.02923  -19.4825
 2.30000    1.89     1.89   0.02924  -19.4825
 2.25000    1.89     1.89   0.02925  -19.4824
 2.20000    1.89     1.89   0.02921  -19.4823
 2.15000    1.89     1.89   0.02925  -19.4821
 2.10000    1.89     1.89   0.02924  -19.4819
 2.05000    1.89     1.89   0.02927  -19.4816
 2.00000    1.89     1.89   0.02922  -19.4814
 1.95000    1.89     1.89   0.02932  -19.4813
 1.90000    1.89     1.89   0.02937  -19.4809
 1.85000    1.89     1.89   0.02933  -19.4807
 1.80000    1.89     1.89   0.02939  -19.4804
 1.75000    1.89     1.89   0.02940  -19.4801
 1.70000    1.89     1.89   0.02948  -19.4800
 1.65000    1.89     1.89   0.02961  -19.4800
 1.60000    1.89     1.89   0.02969  -19.4800
 1.55000    1.89     1.89   0.02980  -19.4801
 1.50000    1.89     1.89   0.02984  -19.4803
 1.45000    1.89     1.89   0.02998  -19.4806
 1.40000    1.89     1.89   0.03010  -19.4812
 1.35000    1.89     1.89   0.03010  -19.4817
 1.30000    1.89     1.89   0.03003  -19.4823
 1.25000    1.89     1.89   0.02998  -19.4825
 1.20000    1.89     1.89   0.03007  -19.4827
 1.15000    1.89     1.89   0.03003  -19.4829
 1.10000    1.89     1.89   0.02992  -19.4831
 1.05000    1.89     1.89   0.02995  -19.4831
 1.00000    1.89     1.89   0.02996  -19.4832
 0.95000    1.89     1.89   0.03002  -19.4834
 0.90000    1.89     1.89   0.02992  -19.4836
 0.85000    1.89     1.89   0.03002  -19.4838
 0.80000    1.89     1.89   0.03000  -19.4841
 0.75000    1.89     1.89   0.02992  -19.4844
 0.70000    1.89     1.89   0.03002  -19.4846
 0.65000    1.89     1.89   0.02995  -19.4849
 0.60000    1.89     1.89   0.03004  -19.4853
 0.55000    1.89     1.89   0.03001  -19.4855
 0.50000    1.89     1.89   0.03003  -19.4856
 0.45000    1.89     1.89   0.03005  -19.4860
 0.40000    1.89     1.89   0.03001  -19.4865
 0.35000    1.89     1.89   0.02997  -19.4869
 0.30000    1.89     1.89   0.02993  -19.4874
 0.25000    1.89     1.89   0.02994  -19.4878
 0.20000    1.89     1.89   0.02994  -19.4884
 0.15000    1.89     1.89   0.02990  -19.4889
 0.10000    1.89     1.89   0.02997  -19.4896
 0.05000    1.89     1.89   0.02978  -19.4902
 -0.00000    1.89     1.89   0.02988  -19.4905
