 Field[T] Tsmpl[K] Tcntr[K] Signal   Mirror[MM]
 0.00000    1.84     1.84   0.29363  -18.7181
 0.05000    1.84     1.84   0.29319  -18.7173
 0.10000    1.84     1.84   0.29361  -18.7168
 0.15000    1.84     1.84   0.29287  -18.7161
 0.20000    1.84     1.84   0.29262  -18.7154
 0.25000    1.84     1.84   0.29174  -18.7143
 0.30000    1.84     1.84   0.29059  -18.7136
 0.35000    1.84     1.84   0.28903  -18.7124
 0.40000    1.84     1.84   0.28510  -18.7107
 0.45000    1.84     1.84   0.28236  -18.7108
 0.50000    1.84     1.84   0.27935  -18.7112
 0.55000    1.84     1.84   0.27652  -18.7115
 0.60000    1.84     1.84   0.27350  -18.7127
 0.65000    1.84     1.84   0.27058  -18.7140
 0.70000    1.84     1.84   0.26773  -18.7152
 0.75000    1.84     1.84   0.26539  -18.7172
 0.80000    1.84     1.84   0.26352  -18.7194
 0.85000    1.84     1.84   0.26217  -18.7217
 0.90000    1.84     1.84   0.26228  -18.7240
 0.95000    1.84     1.84   0.26212  -18.7261
 1.00000    1.84     1.84   0.26219  -18.7279
 1.05000    1.84     1.84   0.26306  -18.7294
 1.10000    1.84     1.84   0.26414  -18.7308
 1.15000    1.84     1.84   0.26460  -18.7323
 1.20000    1.84     1.84   0.26506  -18.7335
 1.25000    1.84     1.84   0.26587  -18.7344
 1.30000    1.84     1.84   0.26716  -18.7356
 1.35000    1.84     1.84   0.26817  -18.7364
 1.40000    1.84     1.84   0.26911  -18.7372
 1.45000    1.84     1.84   0.26982  -18.7377
 1.50000    1.84     1.84   0.27097  -18.7383
 1.55000    1.84     1.84   0.27173  -18.7388
 1.60000    1.84     1.84   0.27314  -18.7392
 1.65000    1.84     1.84   0.27399  -18.7396
 1.70000    1.84     1.84   0.27491  -18.7398
 1.75000    1.84     1.84   0.27525  -18.7400
 1.80000    1.84     1.84   0.27714  -18.7405
 1.85000    1.84     1.84   0.27709  -18.7404
 1.90000    1.84     1.84   0.27781  -18.7407
 1.95000    1.84     1.84   0.27854  -18.7408
 2.00000    1.84     1.84   0.27953  -18.7410
 2.05000    1.84     1.84   0.27999  -18.7410
 2.10000    1.84     1.84   0.28047  -18.7410
 2.15000    1.84     1.84   0.28020  -18.7409
 2.20000    1.84     1.84   0.28061  -18.7411
 2.25000    1.84     1.84   0.28146  -18.7411
 2.30000    1.84     1.84   0.28188  -18.7414
 2.35000    1.84     1.84   0.28259  -18.7414
 2.40000    1.84     1.84   0.28241  -18.7411
 2.45000    1.84     1.84   0.28296  -18.7411
 2.50000    1.84     1.84   0.28323  -18.7413
 2.55000    1.84     1.84   0.28365  -18.7413
 2.60000    1.84     1.84   0.28358  -18.7414
 2.65000    1.84     1.84   0.28388  -18.7412
 2.70000    1.84     1.84   0.28512  -18.7412
 2.75000    1.84     1.84   0.28498  -18.7414
 2.80000    1.84     1.84   0.28487  -18.7414
 2.85000    1.84     1.84   0.28475  -18.7413
 2.90000    1.84     1.84   0.28542  -18.7415
 2.95000    1.84     1.84   0.28563  -18.7416
 3.00000    1.84     1.84   0.28551  -18.7414
 3.05000    1.84     1.84   0.28494  -18.7412
 3.10000    1.84     1.84   0.28574  -18.7414
 3.15000    1.84     1.84   0.28586  -18.7415
 3.20000    1.84     1.84   0.28657  -18.7414
 3.25000    1.84     1.84   0.28671  -18.7413
 3.30000    1.84     1.84   0.28714  -18.7414
 3.35000    1.84     1.84   0.28742  -18.7416
 3.40000    1.84     1.84   0.28744  -18.7415
 3.45000    1.84     1.84   0.28790  -18.7415
 3.50000    1.84     1.84   0.28790  -18.7414
 3.55000    1.84     1.84   0.28832  -18.7413
 3.60000    1.84     1.84   0.28781  -18.7414
 3.65000    1.84     1.84   0.28829  -18.7415
 3.70000    1.84     1.84   0.28825  -18.7415
 3.75000    1.84     1.84   0.28862  -18.7413
 3.80000    1.84     1.84   0.28864  -18.7413
 3.85000    1.84     1.84   0.28820  -18.7415
 3.90000    1.84     1.84   0.28816  -18.7412
 3.95000    1.84     1.84   0.28864  -18.7412
 4.00000    1.84     1.84   0.28850  -18.7415
 4.05000    1.84     1.84   0.28873  -18.7416
 4.10000    1.84     1.84   0.28878  -18.7412
 4.15000    1.84     1.84   0.28885  -18.7410
 4.20000    1.84     1.84   0.28875  -18.7409
 4.25000    1.84     1.84   0.28905  -18.7414
 4.30000    1.84     1.84   0.28949  -18.7410
 4.35000    1.84     1.84   0.28921  -18.7411
 4.40000    1.84     1.84   0.28967  -18.7414
 4.45000    1.84     1.84   0.28917  -18.7411
 4.50000    1.84     1.84   0.28944  -18.7413
 4.55000    1.84     1.84   0.29011  -18.7414
 4.60000    1.84     1.84   0.28965  -18.7416
 4.65000    1.84     1.84   0.28983  -18.7414
 4.70000    1.84     1.84   0.28977  -18.7413
 4.75000    1.84     1.84   0.29057  -18.7412
 4.80000    1.84     1.84   0.29046  -18.7412
 4.85000    1.84     1.84   0.29041  -18.7412
 4.90000    1.84     1.84   0.29076  -18.7413
 4.95000    1.84     1.84   0.29069  -18.7413
 5.00000    1.84     1.84   0.29076  -18.7410
