 Field[T] Tsmpl[K] Tcntr[K] Signal   Mirror[MM]
 0.00000    1.78     1.78   0.80440  -10.9109
 0.05000    1.78     1.78   0.80399  -10.9108
 0.10000    1.78     1.78   0.80370  -10.9109
 0.15000    1.78     1.78   0.80288  -10.9110
 0.20000    1.78     1.78   0.80204  -10.9109
 0.25000    1.78     1.78   0.80086  -10.9108
 0.30000    1.78     1.78   0.79978  -10.9106
 0.35000    1.78     1.78   0.79776  -10.9102
 0.40000    1.78     1.78   0.79620  -10.9101
 0.45000    1.78     1.78   0.79348  -10.9097
 0.50000    1.78     1.78   0.78926  -10.9094
 0.55000    1.78     1.78   0.78345  -10.9090
 0.60000    1.78     1.78   0.77463  -10.9092
 0.65000    1.78     1.78   0.76478  -10.9110
 0.70000    1.78     1.78   0.75770  -10.9146
 0.75000    1.78     1.78   0.75555  -10.9190
 0.80000    1.78     1.78   0.75709  -10.9226
 0.85000    1.78     1.78   0.76050  -10.9258
 0.90000    1.78     1.78   0.76428  -10.9282
 0.95000    1.78     1.78   0.76915  -10.9300
 1.00000    1.78     1.78   0.77501  -10.9316
 1.05000    1.78     1.78   0.78061  -10.9325
 1.10000    1.78     1.78   0.78627  -10.9328
 1.15000    1.78     1.78   0.79075  -10.9326
 1.20000    1.78     1.78   0.79477  -10.9326
 1.25000    1.78     1.78   0.79814  -10.9325
 1.30000    1.78     1.78   0.80160  -10.9318
 1.35000    1.78     1.78   0.80241  -10.9313
 1.40000    1.78     1.78   0.80384  -10.9309
 1.45000    1.78     1.78   0.80470  -10.9304
 1.50000    1.78     1.78   0.80597  -10.9299
 1.55000    1.78     1.78   0.80755  -10.9297
 1.60000    1.78     1.78   0.80798  -10.9294
 1.65000    1.78     1.78   0.80898  -10.9295
 1.70000    1.78     1.78   0.80926  -10.9291
 1.75000    1.78     1.78   0.80956  -10.9291
 1.80000    1.78     1.78   0.81018  -10.9290
 1.85000    1.78     1.78   0.81036  -10.9285
 1.90000    1.78     1.78   0.81071  -10.9281
 1.95000    1.78     1.78   0.81075  -10.9281
 2.00000    1.78     1.78   0.81120  -10.9281
 2.05000    1.78     1.78   0.81122  -10.9280
 2.10000    1.78     1.78   0.81103  -10.9280
 2.15000    1.78     1.78   0.81129  -10.9276
 2.20000    1.78     1.78   0.81097  -10.9275
 2.25000    1.78     1.78   0.81112  -10.9273
 2.30000    1.78     1.78   0.81140  -10.9272
 2.35000    1.78     1.78   0.81153  -10.9275
 2.40000    1.78     1.78   0.81166  -10.9275
 2.45000    1.78     1.78   0.81171  -10.9270
 2.50000    1.78     1.78   0.81157  -10.9270
 2.55000    1.78     1.78   0.81187  -10.9269
 2.60000    1.78     1.78   0.81091  -10.9270
 2.65000    1.78     1.78   0.81126  -10.9270
 2.70000    1.78     1.78   0.81092  -10.9269
 2.75000    1.78     1.78   0.81096  -10.9265
 2.80000    1.78     1.78   0.81068  -10.9267
 2.85000    1.78     1.78   0.80975  -10.9264
 2.90000    1.78     1.78   0.80972  -10.9261
 2.95000    1.78     1.78   0.81010  -10.9262
 3.00000    1.78     1.78   0.81007  -10.9263
 3.05000    1.78     1.78   0.81009  -10.9263
 3.10000    1.78     1.78   0.80972  -10.9259
 3.15000    1.78     1.78   0.80985  -10.9258
 3.20000    1.78     1.78   0.80794  -10.9261
 3.25000    1.78     1.78   0.80926  -10.9257
 3.30000    1.78     1.78   0.81017  -10.9259
 3.35000    1.78     1.78   0.81038  -10.9259
 3.40000    1.78     1.78   0.81182  -10.9259
 3.45000    1.78     1.78   0.81147  -10.9256
 3.50000    1.78     1.78   0.81159  -10.9256
 3.55000    1.78     1.78   0.81227  -10.9258
 3.60000    1.78     1.78   0.81193  -10.9254
 3.65000    1.78     1.78   0.81179  -10.9255
 3.70000    1.78     1.78   0.81221  -10.9257
 3.75000    1.78     1.78   0.81234  -10.9255
 3.80000    1.78     1.78   0.81207  -10.9253
 3.85000    1.78     1.78   0.81201  -10.9255
 3.90000    1.78     1.78   0.81253  -10.9253
 3.95000    1.78     1.78   0.81192  -10.9252
 4.00000    1.78     1.78   0.81176  -10.9253
 4.00000    1.78     1.78   0.81172  -10.9252
 3.95000    1.78     1.78   0.81198  -10.9254
 3.90000    1.78     1.78   0.81205  -10.9255
 3.85000    1.78     1.78   0.81212  -10.9254
 3.80000    1.78     1.78   0.81234  -10.9255
 3.75000    1.78     1.78   0.81273  -10.9254
 3.70000    1.78     1.78   0.81245  -10.9256
 3.65000    1.78     1.78   0.81214  -10.9258
 3.60000    1.78     1.78   0.81230  -10.9257
 3.55000    1.78     1.78   0.81244  -10.9255
 3.50000    1.78     1.78   0.81296  -10.9255
 3.45000    1.78     1.78   0.81281  -10.9252
 3.40000    1.78     1.78   0.81327  -10.9250
 3.35000    1.78     1.78   0.81356  -10.9253
 3.30000    1.78     1.78   0.81362  -10.9250
 3.25000    1.78     1.78   0.81374  -10.9253
 3.20000    1.78     1.78   0.81373  -10.9251
 3.15000    1.78     1.78   0.81396  -10.9248
 3.10000    1.78     1.78   0.81375  -10.9251
 3.05000    1.78     1.78   0.81430  -10.9254
 3.00000    1.78     1.78   0.81432  -10.9252
 2.95000    1.78     1.78   0.81446  -10.9252
 2.90000    1.78     1.78   0.81472  -10.9250
 2.85000    1.78     1.78   0.81451  -10.9252
 2.80000    1.78     1.78   0.81451  -10.9249
 2.75000    1.78     1.78   0.81460  -10.9252
 2.70000    1.78     1.78   0.81542  -10.9255
 2.65000    1.78     1.78   0.81471  -10.9257
 2.60000    1.78     1.78   0.81496  -10.9256
 2.55000    1.78     1.78   0.81507  -10.9254
 2.50000    1.78     1.78   0.81500  -10.9257
 2.45000    1.78     1.78   0.81495  -10.9256
 2.40000    1.78     1.78   0.81549  -10.9258
 2.35000    1.78     1.78   0.81557  -10.9254
 2.30000    1.78     1.78   0.81534  -10.9258
 2.25000    1.78     1.78   0.81507  -10.9260
 2.20000    1.78     1.78   0.81504  -10.9259
 2.15000    1.78     1.78   0.81500  -10.9262
 2.10000    1.78     1.78   0.81513  -10.9263
 2.05000    1.78     1.78   0.81433  -10.9262
 2.00000    1.78     1.78   0.81444  -10.9266
 1.95000    1.78     1.78   0.81420  -10.9267
 1.90000    1.78     1.78   0.81416  -10.9266
 1.85000    1.78     1.78   0.81366  -10.9268
 1.80000    1.78     1.78   0.81369  -10.9272
 1.75000    1.78     1.78   0.81341  -10.9269
 1.70000    1.78     1.78   0.81320  -10.9268
 1.65000    1.78     1.78   0.81274  -10.9273
 1.60000    1.78     1.78   0.81168  -10.9277
 1.55000    1.78     1.78   0.81130  -10.9276
 1.50000    1.78     1.78   0.81025  -10.9279
 1.45000    1.78     1.78   0.80946  -10.9284
 1.40000    1.78     1.78   0.80812  -10.9288
 1.35000    1.78     1.78   0.80682  -10.9292
 1.30000    1.78     1.78   0.80443  -10.9299
 1.25000    1.78     1.78   0.80197  -10.9301
 1.20000    1.78     1.78   0.79879  -10.9305
 1.15000    1.78     1.78   0.79434  -10.9308
 1.10000    1.78     1.78   0.79026  -10.9306
 1.05000    1.78     1.78   0.78496  -10.9302
 1.00000    1.78     1.78   0.77929  -10.9294
 0.95000    1.78     1.78   0.77323  -10.9281
 0.90000    1.78     1.78   0.76810  -10.9263
 0.85000    1.78     1.78   0.76387  -10.9241
 0.80000    1.78     1.78   0.76026  -10.9214
 0.75000    1.78     1.78   0.75821  -10.9176
 0.70000    1.78     1.78   0.75985  -10.9133
 0.65000    1.78     1.78   0.76608  -10.9095
 0.60000    1.78     1.78   0.77564  -10.9076
 0.55000    1.78     1.78   0.78515  -10.9071
 0.50000    1.78     1.78   0.79141  -10.9074
 0.45000    1.78     1.78   0.79580  -10.9078
 0.40000    1.78     1.78   0.79852  -10.9085
 0.35000    1.78     1.78   0.80038  -10.9087
 0.30000    1.78     1.78   0.80182  -10.9089
 0.25000    1.78     1.78   0.80341  -10.9092
 0.20000    1.78     1.78   0.80459  -10.9090
 0.15000    1.78     1.78   0.80542  -10.9092
 0.10000    1.78     1.78   0.80610  -10.9092
 0.05000    1.78     1.78   0.80641  -10.9097
 -0.00000    1.78     1.78   0.80674  -10.9099
