 Field[T] Tsmpl[K] Tcntr[K] Signal   Mirror[MM]
 0.00000    1.76     1.76   0.19648  -10.8731
 0.05000    1.76     1.76   0.19618  -10.8727
 0.10000    1.76     1.76   0.19635  -10.8727
 0.15000    1.76     1.76   0.19644  -10.8728
 0.20000    1.76     1.76   0.19630  -10.8724
 0.25000    1.76     1.76   0.19630  -10.8725
 0.30000    1.76     1.76   0.19633  -10.8724
 0.35000    1.76     1.76   0.19631  -10.8723
 0.40000    1.76     1.76   0.19603  -10.8720
 0.45000    1.76     1.76   0.19610  -10.8722
 0.50000    1.76     1.76   0.19599  -10.8720
 0.55000    1.76     1.76   0.19574  -10.8721
 0.60000    1.76     1.76   0.19559  -10.8716
 0.65000    1.76     1.76   0.19516  -10.8716
 0.70000    1.76     1.76   0.19490  -10.8713
 0.75000    1.76     1.76   0.19435  -10.8712
 0.80000    1.76     1.76   0.19344  -10.8713
 0.85000    1.76     1.76   0.19252  -10.8718
 0.90000    1.76     1.76   0.19159  -10.8729
 0.95000    1.76     1.76   0.19110  -10.8743
 1.00000    1.76     1.76   -0.00001  -10.8669
 1.05000    1.76     1.76   0.19028  -10.8774
 1.10000    1.76     1.76   0.19056  -10.8780
 1.15000    1.76     1.76   0.19155  -10.8782
 1.20000    1.76     1.76   0.19273  -10.8804
 1.25000    1.76     1.76   0.19392  -10.8813
 1.30000    1.76     1.76   0.19457  -10.8815
 1.35000    1.76     1.76   0.19512  -10.8811
 1.40000    1.76     1.76   0.19577  -10.8808
 1.45000    1.76     1.76   0.19623  -10.8810
 1.50000    1.76     1.76   0.19664  -10.8805
 1.55000    1.76     1.76   0.19688  -10.8801
 1.60000    1.76     1.76   0.19724  -10.8796
 1.65000    1.76     1.76   0.19749  -10.8794
 1.70000    1.76     1.76   0.19761  -10.8792
 1.75000    1.76     1.76   0.19778  -10.8790
 1.80000    1.76     1.76   0.19780  -10.8787
 1.85000    1.76     1.76   0.19789  -10.8786
 1.90000    1.76     1.76   0.19788  -10.8787
 1.95000    1.76     1.76   0.19801  -10.8785
 2.00000    1.76     1.76   0.19786  -10.8782
 2.05000    1.76     1.76   0.19795  -10.8784
 2.10000    1.76     1.76   0.19788  -10.8785
 2.15000    1.76     1.76   0.19785  -10.8782
 2.20000    1.76     1.76   0.19788  -10.8780
 2.25000    1.76     1.76   0.19773  -10.8782
 2.30000    1.76     1.76   0.19769  -10.8783
 2.35000    1.76     1.76   0.19768  -10.8782
 2.40000    1.76     1.76   0.19761  -10.8780
 2.45000    1.76     1.76   0.19777  -10.8782
 2.50000    1.76     1.76   0.19766  -10.8781
 2.55000    1.76     1.76   0.19764  -10.8781
 2.60000    1.76     1.76   0.19754  -10.8785
 2.65000    1.76     1.76   0.19749  -10.8782
 2.70000    1.76     1.76   0.19747  -10.8781
 2.75000    1.76     1.76   0.19731  -10.8781
 2.80000    1.76     1.76   0.19719  -10.8780
 2.85000    1.76     1.76   0.19724  -10.8781
 2.90000    1.76     1.76   0.19724  -10.8784
 2.95000    1.76     1.76   0.19703  -10.8783
 3.00000    1.76     1.76   0.19702  -10.8780
 3.05000    1.76     1.76   0.19689  -10.8779
 3.10000    1.76     1.76   0.19678  -10.8780
 3.15000    1.76     1.76   0.19673  -10.8781
 3.20000    1.76     1.76   0.19672  -10.8785
 3.25000    1.76     1.76   0.19662  -10.8783
 3.30000    1.76     1.76   0.19657  -10.8782
 3.35000    1.76     1.76   0.19643  -10.8781
 3.40000    1.76     1.76   0.19634  -10.8785
 3.45000    1.76     1.76   0.19633  -10.8785
 3.50000    1.76     1.76   0.19608  -10.8786
 3.55000    1.76     1.76   0.19597  -10.8787
 3.60000    1.76     1.76   0.19597  -10.8787
 3.65000    1.76     1.76   0.19598  -10.8789
 3.70000    1.76     1.76   0.19584  -10.8789
 3.75000    1.76     1.76   0.19570  -10.8788
 3.80000    1.76     1.76   0.19557  -10.8791
 3.85000    1.76     1.76   0.19548  -10.8792
 3.90000    1.76     1.76   0.19534  -10.8792
 3.95000    1.76     1.76   0.19523  -10.8794
 4.00000    1.76     1.76   0.19520  -10.8795
 4.00000    1.76     1.76   0.19511  -10.8795
 3.95000    1.76     1.76   0.19506  -10.8794
 3.90000    1.76     1.76   0.19506  -10.8795
 3.85000    1.76     1.76   0.19501  -10.8795
 3.80000    1.76     1.76   0.19505  -10.8796
 3.75000    1.76     1.76   0.19499  -10.8800
 3.70000    1.76     1.76   0.19497  -10.8800
 3.65000    1.76     1.76   0.19488  -10.8802
 3.60000    1.76     1.76   0.19493  -10.8800
 3.55000    1.76     1.76   0.19482  -10.8797
 3.50000    1.76     1.76   0.19473  -10.8797
 3.45000    1.76     1.76   0.19484  -10.8801
 3.40000    1.76     1.76   0.19485  -10.8801
 3.35000    1.76     1.76   0.19478  -10.8802
 3.30000    1.76     1.76   0.19481  -10.8802
 3.25000    1.76     1.76   0.19503  -10.8802
 3.20000    1.76     1.76   0.19476  -10.8802
 3.15000    1.76     1.76   0.19482  -10.8806
 3.10000    1.76     1.76   0.19484  -10.8806
 3.05000    1.76     1.76   0.19464  -10.8805
 3.00000    1.76     1.76   0.19468  -10.8806
 2.95000    1.76     1.76   0.19478  -10.8806
 2.90000    1.76     1.76   0.19469  -10.8805
 2.85000    1.76     1.76   0.19476  -10.8806
 2.80000    1.76     1.76   0.19476  -10.8807
 2.75000    1.76     1.76   0.19478  -10.8806
 2.70000    1.76     1.76   0.19477  -10.8807
 2.65000    1.76     1.76   0.19481  -10.8808
 2.60000    1.76     1.76   0.19479  -10.8809
 2.55000    1.76     1.76   0.19490  -10.8808
 2.50000    1.76     1.76   0.19480  -10.8811
 2.45000    1.76     1.76   0.19462  -10.8810
 2.40000    1.76     1.76   0.19470  -10.8811
 2.35000    1.76     1.76   0.19478  -10.8811
 2.30000    1.76     1.76   0.19461  -10.8810
 2.25000    1.76     1.76   0.19473  -10.8812
 2.20000    1.76     1.76   0.19473  -10.8813
 2.15000    1.76     1.76   0.19475  -10.8814
 2.10000    1.76     1.76   0.19473  -10.8810
 2.05000    1.76     1.76   0.19486  -10.8811
 2.00000    1.76     1.76   0.19482  -10.8809
 1.95000    1.76     1.76   0.19475  -10.8810
 1.90000    1.76     1.76   0.19477  -10.8810
 1.85000    1.76     1.76   0.19488  -10.8811
 1.80000    1.76     1.76   0.19483  -10.8815
 1.75000    1.76     1.76   0.19477  -10.8814
 1.70000    1.76     1.76   0.19477  -10.8813
 1.65000    1.76     1.76   0.19472  -10.8813
 1.60000    1.76     1.76   0.19456  -10.8815
 1.55000    1.76     1.76   0.19438  -10.8816
 1.50000    1.76     1.76   0.19416  -10.8822
 1.45000    1.76     1.76   0.19376  -10.8823
 1.40000    1.76     1.76   0.19360  -10.8827
 1.35000    1.76     1.76   0.19302  -10.8816
 1.30000    1.76     1.76   0.19263  -10.8819
 1.25000    1.76     1.76   0.19203  -10.8815
 1.20000    1.76     1.76   0.19143  -10.8813
 1.15000    1.76     1.76   0.19074  -10.8806
 1.10000    1.76     1.76   0.19020  -10.8795
 1.05000    1.76     1.76   0.18953  -10.8784
 1.00000    1.76     1.76   0.18931  -10.8771
 0.95000    1.76     1.76   0.18937  -10.8755
 0.90000    1.76     1.76   0.18980  -10.8735
 0.85000    1.76     1.76   0.19080  -10.8723
 0.80000    1.76     1.76   0.19193  -10.8716
 0.75000    1.76     1.76   0.19295  -10.8714
 0.70000    1.76     1.76   0.19369  -10.8715
 0.65000    1.76     1.76   0.19409  -10.8711
 0.60000    1.76     1.76   0.19445  -10.8712
 0.55000    1.76     1.76   0.19474  -10.8711
 0.50000    1.76     1.76   0.19505  -10.8711
 0.45000    1.76     1.76   0.19528  -10.8707
 0.40000    1.76     1.76   0.19559  -10.8710
 0.35000    1.76     1.76   0.19572  -10.8708
 0.30000    1.76     1.76   0.19592  -10.8705
 0.25000    1.76     1.76   0.19606  -10.8704
 0.20000    1.76     1.76   0.19630  -10.8706
 0.15000    1.76     1.76   0.19628  -10.8702
 0.10000    1.76     1.76   0.19645  -10.8703
 0.05000    1.76     1.76   0.19662  -10.8702
 -0.00000    1.76     1.76   0.19679  -10.8704
