 Field[T] Tsmpl[K] Tcntr[K] Signal   Mirror[MM]
 0.00000    1.73     1.73   0.81012  -10.8844
 0.05000    1.73     1.73   0.81130  -10.8841
 0.10000    1.73     1.73   0.81107  -10.8986
 0.15000    1.73     1.73   0.80704  -10.9083
 0.20000    1.73     1.73   0.80495  -10.9113
 0.25000    1.73     1.73   0.80845  -10.9097
 0.30000    1.73     1.73   0.80575  -10.9060
 0.35000    1.73     1.73   0.80359  -10.9040
 0.40000    1.73     1.73   0.79561  -10.9063
 0.45000    1.73     1.73   0.78402  -10.9130
 0.50000    1.73     1.73   0.78003  -10.9239
 0.55000    1.73     1.73   0.77767  -10.9387
 0.60000    1.73     1.73   0.77638  -10.9505
 0.65000    1.73     1.73   0.77927  -10.9580
 0.70000    1.73     1.73   0.78740  -10.9633
 0.75000    1.73     1.73   0.79146  -10.9677
 0.80000    1.73     1.73   0.79241  -10.9711
 0.85000    1.73     1.73   0.79192  -10.9730
 0.90000    1.73     1.73   0.79488  -10.9746
 0.95000    1.73     1.73   0.79378  -10.9769
 1.00000    1.73     1.73   0.79610  -10.9776
 1.05000    1.73     1.73   0.79640  -10.9796
 1.10000    1.73     1.73   0.79568  -10.9784
 1.15000    1.73     1.73   0.80264  -10.9803
 1.20000    1.73     1.73   0.80104  -10.9811
 1.25000    1.73     1.73   0.79834  -10.9811
 1.30000    1.73     1.73   0.80419  -10.9786
 1.35000    1.73     1.73   0.80393  -10.9795
 1.40000    1.73     1.73   0.80818  -10.9795
 1.45000    1.73     1.73   0.81240  -10.9823
 1.50000    1.73     1.73   0.81054  -10.9779
 1.55000    1.73     1.73   0.80784  -10.9786
 1.60000    1.73     1.73   0.82088  -10.9791
 1.65000    1.73     1.73   0.82179  -10.9810
 1.70000    1.73     1.73   0.82278  -10.9816
 1.75000    1.73     1.73   0.82642  -10.9827
 1.80000    1.73     1.73   0.82673  -10.9817
 1.85000    1.73     1.73   0.82498  -10.9815
 1.90000    1.73     1.73   0.83072  -10.9826
 1.95000    1.73     1.73   0.83011  -10.9830
 2.00000    1.73     1.73   0.82350  -10.9832
 2.05000    1.73     1.73   0.82460  -10.9831
 2.10000    1.73     1.73   0.82270  -10.9837
 2.15000    1.73     1.73   0.82620  -10.9833
 2.20000    1.73     1.73   0.82734  -10.9845
 2.25000    1.73     1.73   0.82468  -10.9832
 2.30000    1.73     1.73   0.81799  -10.9845
 2.35000    1.73     1.73   0.82433  -10.9846
 2.40000    1.73     1.73   0.82456  -10.9845
 2.45000    1.73     1.73   0.82297  -10.9845
 2.50000    1.73     1.73   0.82243  -10.9847
 2.55000    1.73     1.73   0.82129  -10.9855
 2.60000    1.73     1.73   0.81977  -10.9855
 2.65000    1.73     1.73   0.82354  -10.9855
 2.70000    1.73     1.73   0.82190  -10.9851
 2.75000    1.73     1.73   0.81841  -10.9877
 2.80000    1.73     1.73   0.81970  -10.9886
 2.85000    1.73     1.73   0.81913  -10.9878
 2.90000    1.73     1.73   0.81734  -10.9880
 2.95000    1.73     1.73   0.82034  -10.9858
 3.00000    1.73     1.73   0.81856  -10.9867
 3.05000    1.73     1.73   0.82095  -10.9868
 3.10000    1.73     1.73   0.82122  -10.9855
 3.15000    1.73     1.73   0.81947  -10.9859
 3.20000    1.73     1.73   0.82202  -10.9846
 3.25000    1.73     1.73   0.82498  -10.9813
 3.30000    1.73     1.73   0.82319  -10.9822
 3.35000    1.73     1.73   0.81407  -10.9813
 3.40000    1.73     1.73   0.81806  -10.9828
 3.45000    1.73     1.73   0.82304  -10.9822
 3.50000    1.73     1.73   0.82160  -10.9830
 3.55000    1.73     1.73   0.82205  -10.9832
 3.60000    1.73     1.73   0.82384  -10.9835
 3.65000    1.73     1.73   0.82281  -10.9829
 3.70000    1.73     1.73   0.82354  -10.9837
 3.75000    1.73     1.73   0.81772  -10.9845
 3.80000    1.73     1.73   0.82069  -10.9835
 3.85000    1.73     1.73   0.82031  -10.9834
 3.90000    1.73     1.73   0.82034  -10.9846
 3.95000    1.73     1.73   0.81860  -10.9843
 4.00000    1.73     1.73   0.82023  -10.9838
 4.00000    1.73     1.73   0.81898  -10.9841
 3.95000    1.73     1.73   0.81799  -10.9866
 3.90000    1.73     1.73   0.81210  -10.9851
 3.85000    1.73     1.73   0.80860  -10.9834
 3.80000    1.73     1.73   0.80879  -10.9836
 3.75000    1.73     1.73   0.81100  -10.9853
 3.70000    1.73     1.73   0.80940  -10.9837
 3.65000    1.73     1.73   0.80267  -10.9818
 3.60000    1.73     1.73   0.80651  -10.9790
 3.55000    1.73     1.73   0.80666  -10.9778
 3.50000    1.73     1.73   0.80902  -10.9793
 3.45000    1.73     1.73   0.80712  -10.9798
 3.40000    1.73     1.73   0.80286  -10.9771
 3.35000    1.73     1.73   0.80336  -10.9767
 3.30000    1.73     1.73   0.80051  -10.9773
 3.25000    1.73     1.73   0.79906  -10.9803
 3.20000    1.73     1.73   0.79944  -10.9784
 3.15000    1.73     1.73   0.79804  -10.9791
 3.10000    1.73     1.73   0.80184  -10.9802
 3.05000    1.73     1.73   0.80385  -10.9805
 3.00000    1.73     1.73   0.80549  -10.9797
 2.95000    1.73     1.73   0.80788  -10.9767
 2.90000    1.73     1.73   0.80830  -10.9756
 2.85000    1.73     1.73   0.81031  -10.9764
 2.80000    1.73     1.73   0.80150  -10.9732
 2.75000    1.73     1.73   0.80587  -10.9748
 2.70000    1.73     1.73   0.80974  -10.9739
 2.65000    1.73     1.73   0.81020  -10.9744
 2.60000    1.73     1.73   0.80875  -10.9760
 2.55000    1.73     1.73   0.80435  -10.9748
 2.50000    1.73     1.73   0.80693  -10.9736
 2.45000    1.73     1.73   0.80621  -10.9719
 2.40000    1.73     1.73   0.80621  -10.9699
 2.35000    1.73     1.73   0.80659  -10.9698
 2.30000    1.73     1.73   0.80746  -10.9700
 2.25000    1.73     1.73   0.80655  -10.9700
 2.20000    1.73     1.73   0.80408  -10.9706
 2.15000    1.73     1.73   0.80807  -10.9706
 2.10000    1.73     1.73   0.80609  -10.9711
 2.05000    1.73     1.73   0.80811  -10.9695
 2.00000    1.73     1.73   0.80628  -10.9693
 1.95000    1.73     1.73   0.80347  -10.9679
 1.90000    1.73     1.73   0.80533  -10.9674
 1.85000    1.73     1.73   0.80465  -10.9674
 1.80000    1.73     1.73   0.80594  -10.9671
 1.75000    1.73     1.73   0.80560  -10.9670
 1.70000    1.73     1.73   0.80720  -10.9650
 1.65000    1.73     1.73   0.80537  -10.9653
 1.60000    1.73     1.73   0.80431  -10.9646
 1.55000    1.73     1.73   0.80461  -10.9651
 1.50000    1.73     1.73   0.80328  -10.9647
 1.45000    1.73     1.73   0.80180  -10.9637
 1.40000    1.73     1.73   0.80241  -10.9621
 1.35000    1.73     1.73   0.79758  -10.9623
 1.30000    1.73     1.73   0.79891  -10.9599
 1.25000    1.73     1.73   0.79891  -10.9611
 1.20000    1.73     1.73   0.79944  -10.9599
 1.15000    1.73     1.73   0.79811  -10.9597
 1.10000    1.73     1.73   0.79887  -10.9582
 1.05000    1.73     1.73   0.79941  -10.9563
 1.00000    1.73     1.73   0.79614  -10.9557
 0.95000    1.73     1.73   0.79678  -10.9523
 0.90000    1.73     1.73   0.80043  -10.9485
 0.85000    1.73     1.73   0.79621  -10.9462
 0.80000    1.73     1.73   0.79177  -10.9453
 0.75000    1.73     1.73   0.79074  -10.9440
 0.70000    1.73     1.73   0.78519  -10.9367
 0.65000    1.73     1.73   0.78478  -10.9311
 0.60000    1.73     1.73   0.78208  -10.9251
 0.55000    1.73     1.73   0.78269  -10.9159
 0.50000    1.73     1.73   0.78105  -10.9027
 0.45000    1.73     1.73   0.79424  -10.8931
 0.40000    1.73     1.73   0.80108  -10.8869
 0.35000    1.73     1.73   0.80887  -10.8859
 0.30000    1.73     1.73   0.81373  -10.8859
 0.25000    1.73     1.73   0.82141  -10.8872
 0.20000    1.73     1.73   0.81863  -10.8878
 0.15000    1.73     1.73   0.81613  -10.8870
 0.10000    1.73     1.73   0.80929  -10.8854
 0.05000    1.73     1.73   0.80560  -10.8826
 -0.00000    1.73     1.73   0.81100  -10.8747
