 Field[T] Tsmpl[K] Tcntr[K] Signal   Mirror[MM]
 0.00000    1.80     1.80   0.15015  -10.9959
 0.05000    1.80     1.80   0.14988  -10.9958
 0.10000    1.80     1.80   0.14982  -10.9957
 0.15000    1.80     1.80   0.14977  -10.9958
 0.20000    1.80     1.80   0.14972  -10.9956
 0.25000    1.80     1.80   0.14971  -10.9956
 0.30000    1.80     1.80   0.14984  -10.9950
 0.35000    1.80     1.80   0.14978  -10.9948
 0.40000    1.80     1.80   0.14977  -10.9950
 0.45000    1.80     1.80   0.14980  -10.9951
 0.50000    1.80     1.80   0.14977  -10.9950
 0.55000    1.80     1.80   0.14975  -10.9946
 0.60000    1.80     1.80   0.14983  -10.9948
 0.65000    1.80     1.80   0.14965  -10.9948
 0.70000    1.80     1.80   0.14974  -10.9949
 0.75000    1.80     1.80   0.14966  -10.9947
 0.80000    1.80     1.80   0.14976  -10.9949
 0.85000    1.80     1.80   0.14971  -10.9946
 0.90000    1.80     1.80   0.14973  -10.9946
 0.95000    1.80     1.80   0.14956  -10.9946
 1.00000    1.80     1.80   0.14947  -10.9947
 1.05000    1.80     1.80   0.14947  -10.9946
 1.10000    1.80     1.80   0.14950  -10.9945
 1.15000    1.80     1.80   0.14942  -10.9945
 1.20000    1.80     1.80   0.14947  -10.9944
 1.25000    1.80     1.80   0.14949  -10.9944
 1.30000    1.80     1.80   0.14939  -10.9944
 1.35000    1.80     1.80   0.14935  -10.9943
 1.40000    1.80     1.80   0.14938  -10.9942
 1.45000    1.80     1.80   0.14926  -10.9944
 1.50000    1.80     1.80   0.14916  -10.9946
 1.55000    1.80     1.80   0.14917  -10.9941
 1.60000    1.80     1.80   0.14908  -10.9939
 1.65000    1.80     1.80   0.14875  -10.9940
 1.70000    1.80     1.80   0.14832  -10.9938
 1.75000    1.80     1.80   0.14816  -10.9935
 1.80000    1.80     1.80   0.14788  -10.9940
 1.85000    1.80     1.80   0.14762  -10.9940
 1.90000    1.80     1.80   0.14750  -10.9942
 1.95000    1.80     1.80   0.14727  -10.9944
 2.00000    1.80     1.80   0.14720  -10.9946
 2.05000    1.80     1.80   0.14723  -10.9949
 2.10000    1.80     1.80   0.14740  -10.9951
 2.15000    1.80     1.80   0.14747  -10.9952
 2.20000    1.80     1.80   0.14772  -10.9954
 2.25000    1.80     1.80   0.14796  -10.9953
 2.30000    1.80     1.80   0.14809  -10.9954
 2.35000    1.80     1.80   0.14841  -10.9955
 2.40000    1.80     1.80   0.14844  -10.9956
 2.45000    1.80     1.80   0.14856  -10.9957
 2.50000    1.80     1.80   0.14880  -10.9958
 2.55000    1.80     1.80   0.14875  -10.9959
 2.60000    1.80     1.80   0.14888  -10.9959
 2.65000    1.80     1.80   0.14900  -10.9954
 2.70000    1.80     1.80   0.14902  -10.9953
 2.75000    1.80     1.80   0.14916  -10.9953
 2.80000    1.80     1.80   0.14924  -10.9953
 2.85000    1.80     1.80   0.14938  -10.9952
 2.90000    1.80     1.80   0.14942  -10.9951
 2.95000    1.80     1.80   0.14947  -10.9952
 3.00000    1.80     1.80   0.14946  -10.9951
 3.05000    1.80     1.80   0.14943  -10.9950
 3.10000    1.80     1.80   0.14940  -10.9950
 3.15000    1.80     1.80   0.14934  -10.9951
 3.20000    1.80     1.80   0.14934  -10.9948
 3.25000    1.80     1.80   0.14952  -10.9947
 3.30000    1.80     1.80   0.14956  -10.9946
 3.35000    1.80     1.80   0.14956  -10.9949
 3.40000    1.80     1.80   0.14949  -10.9946
 3.45000    1.80     1.80   0.14963  -10.9945
 3.50000    1.80     1.80   0.14951  -10.9948
 3.55000    1.80     1.80   0.14957  -10.9945
 3.60000    1.80     1.80   0.14965  -10.9943
 3.65000    1.80     1.80   0.14965  -10.9944
 3.70000    1.80     1.80   0.14973  -10.9944
 3.75000    1.80     1.80   0.14965  -10.9943
 3.80000    1.80     1.80   0.14962  -10.9945
 3.85000    1.80     1.80   0.14974  -10.9945
 3.90000    1.80     1.80   0.14971  -10.9940
 3.95000    1.80     1.80   0.14973  -10.9939
 4.00000    1.80     1.80   0.14976  -10.9943
 4.00000    1.80     1.80   0.14984  -10.9939
 3.95000    1.80     1.80   0.14981  -10.9938
 3.90000    1.80     1.80   0.14985  -10.9939
 3.85000    1.80     1.80   0.14974  -10.9939
 3.80000    1.80     1.80   0.14965  -10.9941
 3.75000    1.80     1.80   0.14978  -10.9942
 3.70000    1.80     1.80   0.14971  -10.9938
 3.65000    1.80     1.80   0.14982  -10.9935
 3.60000    1.80     1.80   0.14978  -10.9931
 3.55000    1.80     1.80   0.14993  -10.9935
 3.50000    1.80     1.80   0.15016  -10.9933
 3.45000    1.80     1.80   0.14994  -10.9934
 3.40000    1.80     1.80   0.14990  -10.9936
 3.35000    1.80     1.80   0.14996  -10.9932
 3.30000    1.80     1.80   0.14995  -10.9934
 3.25000    1.80     1.80   0.14992  -10.9934
 3.20000    1.80     1.80   0.14991  -10.9934
 3.15000    1.80     1.80   0.14990  -10.9936
 3.10000    1.80     1.80   0.14990  -10.9937
 3.05000    1.80     1.80   0.14988  -10.9937
 3.00000    1.80     1.80   0.14985  -10.9936
 2.95000    1.80     1.80   0.14983  -10.9936
 2.90000    1.80     1.80   0.14970  -10.9935
 2.85000    1.80     1.80   0.14973  -10.9932
 2.80000    1.80     1.80   0.14974  -10.9934
 2.75000    1.80     1.80   0.14977  -10.9935
 2.70000    1.80     1.80   0.14955  -10.9941
 2.65000    1.80     1.80   0.14956  -10.9941
 2.60000    1.80     1.80   0.14945  -10.9939
 2.55000    1.80     1.80   0.14928  -10.9938
 2.50000    1.80     1.80   0.14912  -10.9937
 2.45000    1.80     1.80   0.14912  -10.9935
 2.40000    1.80     1.80   0.14890  -10.9937
 2.35000    1.80     1.80   0.14862  -10.9931
 2.30000    1.80     1.80   0.14851  -10.9932
 2.25000    1.80     1.80   0.14849  -10.9935
 2.20000    1.80     1.80   0.14841  -10.9936
 2.15000    1.80     1.80   0.14827  -10.9931
 2.10000    1.80     1.80   0.14823  -10.9927
 2.05000    1.80     1.80   0.14813  -10.9923
 2.00000    1.80     1.80   0.14808  -10.9924
 1.95000    1.80     1.80   0.14813  -10.9926
 1.90000    1.80     1.80   0.14824  -10.9918
 1.85000    1.80     1.80   0.14816  -10.9916
 1.80000    1.80     1.80   0.14857  -10.9917
 1.75000    1.80     1.80   0.14863  -10.9914
 1.70000    1.80     1.80   0.14908  -10.9915
 1.65000    1.80     1.80   0.14922  -10.9915
 1.60000    1.80     1.80   0.14941  -10.9915
 1.55000    1.80     1.80   0.14955  -10.9915
 1.50000    1.80     1.80   0.14954  -10.9917
 1.45000    1.80     1.80   0.14987  -10.9917
 1.40000    1.80     1.80   0.14978  -10.9919
 1.35000    1.80     1.80   0.14981  -10.9918
 1.30000    1.80     1.80   0.14977  -10.9919
 1.25000    1.80     1.80   0.14992  -10.9921
 1.20000    1.80     1.80   0.14986  -10.9919
 1.15000    1.80     1.80   0.14993  -10.9918
 1.10000    1.80     1.80   0.14991  -10.9919
 1.05000    1.80     1.80   0.14996  -10.9922
 1.00000    1.80     1.80   0.14978  -10.9915
 0.95000    1.80     1.80   0.14999  -10.9922
 0.90000    1.80     1.80   0.14994  -10.9923
 0.85000    1.80     1.80   0.15003  -10.9924
 0.80000    1.80     1.80   0.14993  -10.9925
 0.75000    1.80     1.80   0.14994  -10.9924
 0.70000    1.80     1.80   0.14989  -10.9923
 0.65000    1.80     1.80   0.14992  -10.9924
 0.60000    1.80     1.80   0.14979  -10.9924
 0.55000    1.80     1.80   0.14985  -10.9924
 0.50000    1.80     1.80   0.14980  -10.9924
 0.45000    1.80     1.80   0.14967  -10.9925
 0.40000    1.80     1.80   0.14969  -10.9927
 0.35000    1.80     1.80   0.14960  -10.9925
 0.30000    1.80     1.80   0.14957  -10.9925
 0.25000    1.80     1.80   0.14953  -10.9928
 0.20000    1.80     1.80   0.14959  -10.9930
 0.15000    1.80     1.80   0.14958  -10.9931
 0.10000    1.80     1.80   0.14953  -10.9938
 0.05000    1.80     1.80   0.14968  -10.9937
 -0.00000    1.80     1.80   0.14984  -10.9940
