 Field[T] Tsmpl[K] Tcntr[K] Signal   Mirror[MM]
 0.00000    1.80     1.80   0.17085  -10.9464
 0.05000    1.80     1.80   0.17050  -10.9459
 0.10000    1.80     1.80   0.17088  -10.9456
 0.15000    1.80     1.80   0.17098  -10.9457
 0.20000    1.80     1.80   0.17095  -10.9457
 0.25000    1.80     1.80   0.17083  -10.9455
 0.30000    1.80     1.80   0.17094  -10.9451
 0.35000    1.80     1.80   0.17089  -10.9449
 0.40000    1.80     1.80   0.17091  -10.9448
 0.45000    1.80     1.80   0.17082  -10.9446
 0.50000    1.80     1.80   0.17082  -10.9446
 0.55000    1.80     1.80   0.17085  -10.9445
 0.60000    1.80     1.80   0.17087  -10.9445
 0.65000    1.80     1.80   0.17084  -10.9443
 0.70000    1.80     1.80   0.17079  -10.9442
 0.75000    1.80     1.80   0.17073  -10.9439
 0.80000    1.80     1.80   0.17072  -10.9437
 0.85000    1.80     1.80   0.17065  -10.9436
 0.90000    1.80     1.80   0.17066  -10.9436
 0.95000    1.80     1.80   0.17055  -10.9433
 1.00000    1.80     1.80   0.17054  -10.9433
 1.05000    1.80     1.80   0.17045  -10.9432
 1.10000    1.80     1.80   0.17039  -10.9429
 1.15000    1.80     1.80   0.17023  -10.9431
 1.20000    1.80     1.80   0.17014  -10.9429
 1.25000    1.80     1.80   0.16987  -10.9426
 1.30000    1.80     1.80   0.16957  -10.9423
 1.35000    1.80     1.80   0.16903  -10.9422
 1.40000    1.80     1.80   0.16865  -10.9425
 1.45000    1.80     1.80   0.16807  -10.9425
 1.50000    1.80     1.80   0.16771  -10.9429
 1.55000    1.80     1.80   0.16742  -10.9432
 1.60000    1.80     1.80   0.16722  -10.9439
 1.65000    1.80     1.80   0.16720  -10.9441
 1.70000    1.80     1.80   0.16734  -10.9444
 1.75000    1.80     1.80   0.16765  -10.9447
 1.80000    1.80     1.80   0.16791  -10.9450
 1.85000    1.80     1.80   0.16829  -10.9452
 1.90000    1.80     1.80   0.16865  -10.9454
 1.95000    1.80     1.80   0.16899  -10.9451
 2.00000    1.80     1.80   0.16930  -10.9451
 2.05000    1.80     1.80   0.16953  -10.9452
 2.10000    1.80     1.80   0.16979  -10.9451
 2.15000    1.80     1.80   0.16996  -10.9451
 2.20000    1.80     1.80   0.17012  -10.9448
 2.25000    1.80     1.80   0.17028  -10.9447
 2.30000    1.80     1.80   0.17039  -10.9444
 2.35000    1.80     1.80   0.17052  -10.9442
 2.40000    1.80     1.80   0.17059  -10.9443
 2.45000    1.80     1.80   0.17064  -10.9444
 2.50000    1.80     1.80   0.17065  -10.9441
 2.55000    1.80     1.80   0.17071  -10.9438
 2.60000    1.80     1.80   0.17083  -10.9439
 2.65000    1.80     1.80   0.17079  -10.9438
 2.70000    1.80     1.80   0.17083  -10.9438
 2.75000    1.80     1.80   0.17084  -10.9435
 2.80000    1.80     1.80   0.17089  -10.9433
 2.85000    1.80     1.80   0.17083  -10.9434
 2.90000    1.80     1.80   0.17088  -10.9431
 2.95000    1.80     1.80   0.17092  -10.9431
 3.00000    1.80     1.80   0.17088  -10.9429
 3.05000    1.80     1.80   0.17083  -10.9427
 3.10000    1.80     1.80   0.17084  -10.9427
 3.15000    1.80     1.80   0.17089  -10.9426
 3.20000    1.80     1.80   0.17092  -10.9427
 3.25000    1.80     1.80   0.17091  -10.9426
 3.30000    1.80     1.80   0.17082  -10.9424
 3.35000    1.80     1.80   0.17081  -10.9426
 3.40000    1.80     1.80   0.17077  -10.9422
 3.45000    1.80     1.80   0.17078  -10.9422
 3.50000    1.80     1.80   0.17074  -10.9419
 3.55000    1.80     1.80   0.17074  -10.9421
 3.60000    1.80     1.80   0.17083  -10.9421
 3.65000    1.80     1.80   0.17079  -10.9418
 3.70000    1.80     1.80   0.17082  -10.9418
 3.75000    1.80     1.80   0.17075  -10.9417
 3.80000    1.80     1.80   0.17073  -10.9414
 3.85000    1.80     1.80   0.17072  -10.9415
 3.90000    1.80     1.80   0.17074  -10.9414
 3.95000    1.80     1.80   0.17074  -10.9413
 4.00000    1.80     1.80   0.17072  -10.9412
 4.00000    1.80     1.80   0.17075  -10.9411
 3.95000    1.80     1.80   0.17071  -10.9410
 3.90000    1.80     1.80   0.17074  -10.9411
 3.85000    1.80     1.80   0.17072  -10.9410
 3.80000    1.80     1.80   0.17070  -10.9410
 3.75000    1.80     1.80   0.17067  -10.9410
 3.70000    1.80     1.80   0.17062  -10.9409
 3.65000    1.80     1.80   0.17060  -10.9409
 3.60000    1.80     1.80   0.17063  -10.9408
 3.55000    1.80     1.80   0.17059  -10.9405
 3.50000    1.80     1.80   0.17053  -10.9410
 3.45000    1.80     1.80   0.17053  -10.9409
 3.40000    1.80     1.80   0.17054  -10.9402
 3.35000    1.80     1.80   0.17052  -10.9404
 3.30000    1.80     1.80   0.17045  -10.9404
 3.25000    1.80     1.80   0.17048  -10.9406
 3.20000    1.80     1.80   0.17047  -10.9404
 3.15000    1.80     1.80   0.17041  -10.9403
 3.10000    1.80     1.80   0.17035  -10.9403
 3.05000    1.80     1.80   0.17032  -10.9403
 3.00000    1.80     1.80   0.17022  -10.9402
 2.95000    1.80     1.80   0.17021  -10.9400
 2.90000    1.80     1.80   0.17021  -10.9402
 2.85000    1.80     1.80   0.17014  -10.9401
 2.80000    1.80     1.80   0.17016  -10.9400
 2.75000    1.80     1.80   0.17009  -10.9400
 2.70000    1.80     1.80   0.17001  -10.9397
 2.65000    1.80     1.80   0.17000  -10.9398
 2.60000    1.80     1.80   0.16993  -10.9398
 2.55000    1.80     1.80   0.16988  -10.9397
 2.50000    1.80     1.80   0.16985  -10.9399
 2.45000    1.80     1.80   0.16975  -10.9398
 2.40000    1.80     1.80   0.16966  -10.9396
 2.35000    1.80     1.80   0.16956  -10.9397
 2.30000    1.80     1.80   0.16941  -10.9395
 2.25000    1.80     1.80   0.16927  -10.9395
 2.20000    1.80     1.80   0.16914  -10.9396
 2.15000    1.80     1.80   0.16894  -10.9396
 2.10000    1.80     1.80   0.16869  -10.9399
 2.05000    1.80     1.80   0.16847  -10.9397
 2.00000    1.80     1.80   0.16822  -10.9394
 1.95000    1.80     1.80   0.16793  -10.9393
 1.90000    1.80     1.80   0.16755  -10.9391
 1.85000    1.80     1.80   0.16716  -10.9390
 1.80000    1.80     1.80   0.16684  -10.9387
 1.75000    1.80     1.80   0.16649  -10.9383
 1.70000    1.80     1.80   0.16620  -10.9377
 1.65000    1.80     1.80   0.16600  -10.9374
 1.60000    1.80     1.80   0.16600  -10.9369
 1.55000    1.80     1.80   0.16615  -10.9362
 1.50000    1.80     1.80   0.16648  -10.9355
 1.45000    1.80     1.80   0.16680  -10.9351
 1.40000    1.80     1.80   0.16722  -10.9348
 1.35000    1.80     1.80   0.16771  -10.9347
 1.30000    1.80     1.80   0.16807  -10.9345
 1.25000    1.80     1.80   0.16856  -10.9346
 1.20000    1.80     1.80   0.16871  -10.9348
 1.15000    1.80     1.80   0.16889  -10.9347
 1.10000    1.80     1.80   0.16899  -10.9347
 1.05000    1.80     1.80   0.16906  -10.9348
 1.00000    1.80     1.80   0.16914  -10.9349
 0.95000    1.80     1.80   0.16930  -10.9348
 0.90000    1.80     1.80   0.16931  -10.9345
 0.85000    1.80     1.80   0.16943  -10.9346
 0.80000    1.80     1.80   0.16945  -10.9347
 0.75000    1.80     1.80   0.16944  -10.9346
 0.70000    1.80     1.80   0.16951  -10.9345
 0.65000    1.80     1.80   0.16951  -10.9345
 0.60000    1.80     1.80   0.16954  -10.9344
 0.55000    1.80     1.80   0.16958  -10.9344
 0.50000    1.80     1.80   0.16960  -10.9345
 0.45000    1.80     1.80   0.16960  -10.9346
 0.40000    1.80     1.80   0.16961  -10.9346
 0.35000    1.80     1.80   0.16968  -10.9346
 0.30000    1.80     1.80   0.16971  -10.9344
 0.25000    1.80     1.80   0.16970  -10.9343
 0.20000    1.80     1.80   0.16983  -10.9346
 0.15000    1.80     1.80   0.16975  -10.9345
 0.10000    1.80     1.80   0.16982  -10.9346
 0.05000    1.80     1.80   0.16986  -10.9348
 -0.00000    1.80     1.80   0.16990  -10.9349
