 Field[T] Tsmpl[K] Tcntr[K] Signal   Mirror[MM]
 0.00000    1.78     1.78   0.56813  -10.8599
 0.05000    1.78     1.78   0.56811  -10.8588
 0.10000    1.78     1.78   0.56771  -10.8586
 0.15000    1.78     1.78   0.56817  -10.8592
 0.20000    1.78     1.78   0.56804  -10.8595
 0.25000    1.78     1.78   0.56778  -10.8595
 0.30000    1.78     1.78   0.56759  -10.8591
 0.35000    1.78     1.78   0.56727  -10.8590
 0.40000    1.78     1.78   0.56690  -10.8585
 0.45000    1.78     1.78   0.56699  -10.8585
 0.50000    1.78     1.78   0.56659  -10.8585
 0.55000    1.78     1.78   0.56605  -10.8585
 0.60000    1.78     1.78   0.56604  -10.8586
 0.65000    1.78     1.78   0.56563  -10.8585
 0.70000    1.78     1.78   0.56546  -10.8585
 0.75000    1.78     1.78   0.56491  -10.8585
 0.80000    1.78     1.78   0.56428  -10.8585
 0.85000    1.78     1.78   0.56374  -10.8578
 0.90000    1.78     1.78   0.56237  -10.8575
 0.95000    1.78     1.78   0.56015  -10.8575
 1.00000    1.78     1.78   0.55743  -10.8574
 1.05000    1.78     1.78   0.55459  -10.8576
 1.10000    1.78     1.78   0.55182  -10.8586
 1.15000    1.78     1.78   0.55023  -10.8600
 1.20000    1.78     1.78   0.54934  -10.8610
 1.25000    1.78     1.78   0.54995  -10.8620
 1.30000    1.78     1.78   0.55083  -10.8626
 1.35000    1.78     1.78   0.55206  -10.8636
 1.40000    1.78     1.78   0.55369  -10.8640
 1.45000    1.78     1.78   0.55522  -10.8645
 1.50000    1.78     1.78   0.55705  -10.8645
 1.55000    1.78     1.78   0.55840  -10.8647
 1.60000    1.78     1.78   0.55969  -10.8648
 1.65000    1.78     1.78   0.56111  -10.8650
 1.70000    1.78     1.78   0.56187  -10.8644
 1.75000    1.78     1.78   0.56246  -10.8646
 1.80000    1.78     1.78   0.56316  -10.8645
 1.85000    1.78     1.78   0.56369  -10.8645
 1.90000    1.78     1.78   0.56420  -10.8645
 1.95000    1.78     1.78   0.56449  -10.8644
 2.00000    1.78     1.78   0.56442  -10.8640
 2.05000    1.78     1.78   0.56507  -10.8640
 2.10000    1.78     1.78   0.56517  -10.8640
 2.15000    1.78     1.78   0.56522  -10.8635
 2.20000    1.78     1.78   0.56547  -10.8635
 2.25000    1.78     1.78   0.56517  -10.8635
 2.30000    1.78     1.78   0.56528  -10.8635
 2.35000    1.78     1.78   0.56539  -10.8635
 2.40000    1.78     1.78   0.56531  -10.8635
 2.45000    1.78     1.78   0.56554  -10.8635
 2.50000    1.78     1.78   0.56561  -10.8635
 2.55000    1.78     1.78   0.56569  -10.8630
 2.60000    1.78     1.78   0.56556  -10.8630
 2.65000    1.78     1.78   0.56549  -10.8630
 2.70000    1.78     1.78   0.56532  -10.8625
 2.75000    1.78     1.78   0.56544  -10.8629
 2.80000    1.78     1.78   0.56559  -10.8625
 2.85000    1.78     1.78   0.56503  -10.8625
 2.90000    1.78     1.78   0.56507  -10.8625
 2.95000    1.78     1.78   0.56517  -10.8625
 3.00000    1.78     1.78   0.56530  -10.8625
 3.05000    1.78     1.78   0.56523  -10.8625
 3.10000    1.78     1.78   0.56500  -10.8625
 3.15000    1.78     1.78   0.56470  -10.8625
 3.20000    1.78     1.78   0.56484  -10.8625
 3.25000    1.78     1.78   0.56489  -10.8625
 3.30000    1.78     1.78   0.56484  -10.8620
 3.35000    1.78     1.78   0.56440  -10.8625
 3.40000    1.78     1.78   0.56437  -10.8625
 3.45000    1.78     1.78   0.56435  -10.8625
 3.50000    1.78     1.78   0.56451  -10.8625
 3.55000    1.78     1.78   0.56460  -10.8625
 3.60000    1.78     1.78   0.56411  -10.8625
 3.65000    1.78     1.78   0.56424  -10.8625
 3.70000    1.78     1.78   0.56431  -10.8625
 3.75000    1.78     1.78   0.56428  -10.8622
 3.80000    1.78     1.78   0.56387  -10.8624
 3.85000    1.78     1.78   0.56357  -10.8625
 3.90000    1.78     1.78   0.56375  -10.8625
 3.95000    1.78     1.78   0.56332  -10.8625
 4.00000    1.78     1.78   0.56327  -10.8625
 4.00000    1.78     1.78   0.56328  -10.8620
 3.95000    1.78     1.78   0.56337  -10.8620
 3.90000    1.78     1.78   0.56316  -10.8620
 3.85000    1.78     1.78   0.56344  -10.8620
 3.80000    1.78     1.78   0.56321  -10.8620
 3.75000    1.78     1.78   0.56308  -10.8620
 3.70000    1.78     1.78   0.56323  -10.8620
 3.65000    1.78     1.78   0.56326  -10.8619
 3.60000    1.78     1.78   0.56300  -10.8615
 3.55000    1.78     1.78   0.56293  -10.8615
 3.50000    1.78     1.78   0.56320  -10.8620
 3.45000    1.78     1.78   0.56301  -10.8620
 3.40000    1.78     1.78   0.56322  -10.8620
 3.35000    1.78     1.78   0.56293  -10.8615
 3.30000    1.78     1.78   0.56281  -10.8615
 3.25000    1.78     1.78   0.56307  -10.8620
 3.20000    1.78     1.78   0.56300  -10.8615
 3.15000    1.78     1.78   0.56286  -10.8615
 3.10000    1.78     1.78   0.56286  -10.8615
 3.05000    1.78     1.78   0.56265  -10.8615
 3.00000    1.78     1.78   0.56295  -10.8615
 2.95000    1.78     1.78   0.56251  -10.8615
 2.90000    1.78     1.78   0.56280  -10.8620
 2.85000    1.78     1.78   0.56267  -10.8620
 2.80000    1.78     1.78   0.56247  -10.8620
 2.75000    1.78     1.78   0.56262  -10.8622
 2.70000    1.78     1.78   0.56277  -10.8620
 2.65000    1.78     1.78   0.56265  -10.8620
 2.60000    1.78     1.78   0.56263  -10.8620
 2.55000    1.78     1.78   0.56242  -10.8620
 2.50000    1.78     1.78   0.56262  -10.8620
 2.45000    1.78     1.78   0.56258  -10.8620
 2.40000    1.78     1.78   0.56237  -10.8625
 2.35000    1.78     1.78   0.56239  -10.8625
 2.30000    1.78     1.78   0.56223  -10.8620
 2.25000    1.78     1.78   0.56218  -10.8625
 2.20000    1.78     1.78   0.56196  -10.8625
 2.15000    1.78     1.78   0.56204  -10.8625
 2.10000    1.78     1.78   0.56177  -10.8627
 2.05000    1.78     1.78   0.56150  -10.8625
 2.00000    1.78     1.78   0.56134  -10.8625
 1.95000    1.78     1.78   0.56121  -10.8625
 1.90000    1.78     1.78   0.56092  -10.8630
 1.85000    1.78     1.78   0.56068  -10.8630
 1.80000    1.78     1.78   0.55975  -10.8630
 1.75000    1.78     1.78   0.55924  -10.8630
 1.70000    1.78     1.78   0.55861  -10.8630
 1.65000    1.78     1.78   0.55763  -10.8630
 1.60000    1.78     1.78   0.55634  -10.8630
 1.55000    1.78     1.78   0.55514  -10.8630
 1.50000    1.78     1.78   0.55358  -10.8623
 1.45000    1.78     1.78   0.55010  -10.8623
 1.40000    1.78     1.78   0.54978  -10.8605
 1.35000    1.78     1.78   0.54887  -10.8612
 1.30000    1.78     1.78   0.54825  -10.8606
 1.25000    1.78     1.78   0.54708  -10.8599
 1.20000    1.78     1.78   0.54709  -10.8586
 1.15000    1.78     1.78   0.54768  -10.8580
 1.10000    1.78     1.78   0.54942  -10.8565
 1.05000    1.78     1.78   0.55192  -10.8559
 1.00000    1.78     1.78   0.55458  -10.8555
 0.95000    1.78     1.78   0.55728  -10.8553
 0.90000    1.78     1.78   0.55992  -10.8561
 0.85000    1.78     1.78   0.56129  -10.8555
 0.80000    1.78     1.78   0.56216  -10.8565
 0.75000    1.78     1.78   0.56288  -10.8565
 0.70000    1.78     1.78   0.56333  -10.8565
 0.65000    1.78     1.78   0.56374  -10.8570
 0.60000    1.78     1.78   0.56457  -10.8570
 0.55000    1.78     1.78   0.56468  -10.8573
 0.50000    1.78     1.78   0.56515  -10.8570
 0.45000    1.78     1.78   0.56531  -10.8570
 0.40000    1.78     1.78   0.56580  -10.8575
 0.35000    1.78     1.78   0.56622  -10.8575
 0.30000    1.78     1.78   0.56609  -10.8575
 0.25000    1.78     1.78   0.56658  -10.8575
 0.20000    1.78     1.78   0.56689  -10.8575
 0.15000    1.78     1.78   0.56742  -10.8575
 0.10000    1.78     1.78   0.56755  -10.8580
 0.05000    1.78     1.78   0.56783  -10.8579
 -0.00000    1.78     1.78   0.56792  -10.8580
