 Field[T] Tsmpl[K] Tcntr[K] Signal Mirror[MM]
 4.00000    5.47     3.02   2.96007  2.9026
 3.95000    5.47     3.03   2.95936  2.9025
 3.90000    5.46     3.01   2.95760  2.9024
 3.85000    5.46     3.02   2.95546  2.9026
 3.80000    5.45     3.01   2.95386  2.9027
 3.75000    5.46     3.01   2.95208  2.9026
 3.70000    5.46     3.03   2.95158  2.9026
 3.65000    5.46     3.01   2.94953  2.9028
 3.60000    5.46     3.01   2.94829  2.9028
 3.55000    5.47     3.00   2.94677  2.9028
 3.50000    5.47     3.00   2.94540  2.9029
 3.45000    5.48     3.01   2.94271  2.9031
 3.40000    5.49     3.00   2.94197  2.9031
 3.35000    5.50     3.00   2.94153  2.9031
 3.30000    5.51     3.02   2.93660  2.9032
 3.25000    5.52     3.00   2.93722  2.9031
 3.20000    5.53     3.00   2.93713  2.9033
 3.15000    5.55     3.02   2.93589  2.9033
 3.10000    5.57     3.01   2.93206  2.9035
 3.05000    5.58     3.00   2.93118  2.9034
 3.00000    5.60     3.01   2.93154  2.9032
 2.95000    5.61     2.99   2.92969  2.9034
 2.90000    5.61     3.01   2.92703  2.9033
 2.85000    5.63     3.00   2.92684  2.9033
 2.80000    5.63     3.00   2.92528  2.9035
 2.75000    5.64     3.02   2.92432  2.9037
 2.70000    5.64     3.00   2.92203  2.9035
 2.65000    5.65     3.00   2.92031  2.9037
 2.60000    5.65     3.00   2.91918  2.9038
 2.55000    5.65     3.00   2.91817  2.9040
 2.50000    5.65     2.99   2.91637  2.9040
 2.45000    5.65     3.00   2.91500  2.9040
 2.40000    5.65     2.99   2.91381  2.9038
 2.35000    5.65     3.00   2.91181  2.9041
 2.30000    5.65     2.99   2.91053  2.9041
 2.25000    5.65     3.01   2.90906  2.9042
 2.20000    5.65     3.00   2.90754  2.9041
 2.15000    5.65     3.01   2.90577  2.9043
 2.10000    5.65     3.01   2.90468  2.9043
 2.05000    5.65     3.00   2.90193  2.9043
 2.00000    5.64     3.00   2.90055  2.9044
 1.95000    5.64     3.00   2.89885  2.9046
 1.90000    5.64     3.02   2.89675  2.9047
 1.85000    5.63     3.01   2.89603  2.9046
 1.80000    5.63     3.00   2.89385  2.9046
 1.75000    5.62     3.02   2.89209  2.9048
 1.70000    5.62     3.00   2.89048  2.9051
 1.65000    5.61     3.00   2.88864  2.9050
 1.60000    5.60     3.00   2.88657  2.9050
 1.55000    5.59     2.99   2.88401  2.9050
 1.50000    5.57     2.99   2.88041  2.9053
 1.45000    5.56     3.01   2.87857  2.9053
 1.40000    5.56     2.99   2.87634  2.9052
 1.35000    5.56     3.00   2.87370  2.9052
 1.30000    5.55     2.99   2.86847  2.9054
 1.25000    5.55     3.00   2.86694  2.9056
 1.20000    5.55     3.00   2.86499  2.9060
 1.15000    5.55     3.01   2.86539  2.9063
 1.10000    5.55     3.00   2.86377  2.9067
 1.05000    5.55     3.00   2.86481  2.9069
 1.00000    5.55     3.00   2.86614  2.9069
 0.95000    5.54     3.00   2.86544  2.9071
 0.90000    5.53     3.01   2.86621  2.9072
 0.85000    5.53     3.00   2.86676  2.9072
 0.80000    5.52     3.00   2.86657  2.9073
 0.75000    5.51     2.99   2.86580  2.9074
 0.70000    5.49     3.00   2.86645  2.9074
 0.65000    5.47     3.00   2.86571  2.9077
 0.60000    5.47     3.00   2.86587  2.9073
 0.55000    5.45     3.00   2.86473  2.9075
 0.50000    5.43     2.99   2.86421  2.9077
 0.45000    5.42     2.99   2.86273  2.9077
 0.40000    5.41     2.99   2.86250  2.9079
 0.35000    5.40     2.99   2.86170  2.9077
 0.30000    5.40     2.99   2.86190  2.9079
 0.25000    5.40     2.99   2.86030  2.9081
 0.20000    5.40     2.99   2.86076  2.9079
 0.15000    5.40     3.01   2.85928  2.9081
 0.10000    5.40     2.99   2.85829  2.9081
 0.05000    5.40     3.00   2.85728  2.9082
-0.00000    5.40     3.01   2.85754  2.9081
