 Field[T] Tsmpl[K] Tcntr[K] Signal Mirror[MM]
 0.00000    5.03     3.01   1.27825  2.8800
 0.05000    5.03     3.00   1.28143  2.8792
 0.10000    5.04     3.00   1.28274  2.8794
 0.15000    5.04     3.00   1.28296  2.8794
 0.20000    5.05     3.00   1.28311  2.8792
 0.25000    5.05     3.00   1.27273  2.8807
 0.30000    5.06     3.00   1.27269  2.8804
 0.35000    5.06     3.02   1.27396  2.8804
 0.40000    5.07     3.00   1.27402  2.8805
 0.45000    5.08     3.00   1.27403  2.8804
 0.50000    5.10     3.01   1.27416  2.8803
 0.55000    5.12     3.00   1.27467  2.8804
 0.60000    5.13     3.01   1.27511  2.8805
 0.65000    5.15     3.01   1.27597  2.8805
 0.70000    5.17     3.00   1.27646  2.8805
 0.75000    5.17     3.01   1.27614  2.8805
 0.80000    5.18     2.99   1.27354  2.8799
 0.85000    5.19     3.00   1.27303  2.8798
 0.90000    5.20     3.02   1.26958  2.8797
 0.95000    5.20     3.01   1.26897  2.8794
 1.00000    5.20     2.99   1.26877  2.8792
 1.05000    5.19     2.99   1.26863  2.8793
 1.10000    5.18     2.99   1.26822  2.8794
 1.15000    5.17     2.99   1.26837  2.8795
 1.20000    5.17     3.00   1.26578  2.8791
 1.25000    5.16     2.99   1.26293  2.8786
 1.30000    5.16     2.99   1.26343  2.8785
 1.35000    5.16     3.00   1.26297  2.8786
 1.40000    5.17     3.00   1.26284  2.8787
 1.45000    5.17     3.01   1.26237  2.8786
 1.50000    5.18     3.00   1.26180  2.8786
 1.55000    5.18     3.00   1.26153  2.8790
 1.60000    5.19     3.00   1.26106  2.8786
 1.65000    5.19     2.99   1.25988  2.8786
 1.70000    5.19     3.00   1.25919  2.8785
 1.75000    5.19     2.99   1.25894  2.8783
 1.80000    5.19     3.00   1.25958  2.8784
 1.85000    5.19     3.00   1.26076  2.8783
 1.90000    5.19     3.01   1.26225  2.8780
 1.95000    5.19     2.99   1.26337  2.8779
 2.00000    5.19     3.00   1.26539  2.8779
 2.05000    5.19     3.01   1.26677  2.8781
 2.10000    5.19     2.99   1.26775  2.8779
 2.15000    5.18     3.00   1.26867  2.8779
 2.20000    5.18     3.01   1.26944  2.8783
 2.25000    5.18     2.99   1.27081  2.8781
 2.30000    5.18     3.01   1.27169  2.8783
 2.35000    5.18     2.99   1.26796  2.8779
 2.40000    5.18     3.00   1.26858  2.8780
 2.45000    5.17     3.02   1.26938  2.8781
 2.50000    5.17     2.99   1.27039  2.8779
 2.55000    5.17     3.00   1.27134  2.8779
 2.60000    5.17     3.01   1.27207  2.8781
 2.65000    5.17     3.00   1.27300  2.8782
 2.70000    5.17     3.00   1.27399  2.8780
 2.75000    5.17     3.01   1.27469  2.8779
 2.80000    5.18     3.00   1.27574  2.8781
 2.85000    5.18     2.99   1.29192  2.8747
 2.90000    5.18     3.01   1.29561  2.8738
 2.95000    5.19     2.99   1.29550  2.8740
 3.00000    5.19     3.01   1.29605  2.8743
 3.05000    5.19     3.00   1.29637  2.8741
 3.10000    5.19     3.00   1.29639  2.8740
 3.15000    5.19     3.01   1.29772  2.8739
 3.20000    5.19     2.99   1.29831  2.8737
 3.25000    5.19     2.99   1.29878  2.8737
 3.30000    5.19     3.01   1.29915  2.8739
 3.35000    5.20     3.00   1.29972  2.8738
 3.40000    5.21     3.00   1.29994  2.8739
 3.45000    5.22     3.01   1.30125  2.8739
 3.50000    5.23     3.00   1.30130  2.8740
 3.55000    5.24     3.00   1.30211  2.8739
 3.60000    5.24     3.01   1.30184  2.8739
 3.65000    5.26     2.99   1.30318  2.8737
 3.70000    5.26     3.01   1.30341  2.8738
 3.75000    5.27     3.01   1.30401  2.8739
 3.80000    5.28     3.00   1.30415  2.8738
 3.85000    5.29     3.01   1.30537  2.8739
 3.90000    5.30     3.00   1.30492  2.8741
 3.95000    5.31     3.01   1.30608  2.8738
 4.00000    5.31     3.00   1.30620  2.8738
 4.05000    5.31     3.01   1.30716  2.8738
 4.10000    5.32     3.01   1.30755  2.8738
 4.15000    5.33     3.00   1.30845  2.8737
 4.20000    5.33     3.01   1.30919  2.8740
 4.25000    5.33     3.00   1.30911  2.8738
 4.30000    5.34     3.01   1.30964  2.8737
 4.35000    5.34     2.99   1.31020  2.8738
 4.40000    5.34     3.00   1.31037  2.8737
 4.45000    5.35     3.00   1.31074  2.8737
 4.50000    5.35     3.00   1.31100  2.8738
 4.55000    5.37     3.01   1.31174  2.8737
 4.60000    5.37     3.00   1.31185  2.8738
 4.65000    5.38     3.00   1.31204  2.8737
 4.70000    5.39     3.01   1.31287  2.8737
 4.75000    5.40     3.02   1.31307  2.8738
 4.80000    5.41     3.00   1.31345  2.8739
 4.85000    5.42     3.01   1.31389  2.8741
 4.90000    5.42     3.00   1.31407  2.8739
 4.95000    5.43     3.01   1.31482  2.8737
 5.00000    5.44     3.01   1.31514  2.8738
 5.00000    5.44     3.00   1.31568  2.8738
 4.95000    5.46     3.00   1.31424  2.8740
 4.90000    5.47     3.00   1.31484  2.8744
 4.85000    5.48     3.02   1.31354  2.8746
 4.80000    5.49     3.01   1.31339  2.8740
 4.75000    5.50     3.01   1.31347  2.8742
 4.70000    5.51     3.00   1.31345  2.8740
 4.65000    5.51     3.00   1.31376  2.8740
 4.60000    5.51     3.00   1.31293  2.8741
 4.55000    5.51     3.01   1.31305  2.8740
 4.50000    5.50     3.01   1.31325  2.8739
 4.45000    5.49     3.00   1.31241  2.8746
 4.40000    5.49     3.00   1.31192  2.8745
 4.35000    5.49     3.00   1.31127  2.8745
 4.30000    5.48     3.00   1.31133  2.8746
 4.25000    5.48     3.01   1.31099  2.8744
 4.20000    5.48     3.00   1.31104  2.8741
 4.15000    5.48     3.00   1.31137  2.8744
 4.10000    5.49     3.01   1.31077  2.8745
 4.05000    5.49     3.00   1.30989  2.8744
 4.00000    5.49     3.00   1.30967  2.8746
 3.95000    5.50     3.01   1.31013  2.8743
 3.90000    5.50     3.00   1.31012  2.8744
 3.85000    5.51     2.99   1.30966  2.8748
 3.80000    5.51     3.01   1.30907  2.8747
 3.75000    5.52     3.00   1.30868  2.8745
 3.70000    5.52     3.00   1.30844  2.8744
 3.65000    5.53     3.00   1.30808  2.8747
 3.60000    5.53     3.01   1.30790  2.8749
 3.55000    5.54     3.00   1.30719  2.8746
 3.50000    5.55     3.01   1.30729  2.8742
 3.45000    5.56     3.00   1.30708  2.8744
 3.40000    5.56     3.00   1.30687  2.8746
 3.35000    5.57     3.02   1.30603  2.8747
 3.30000    5.58     3.00   1.30603  2.8748
 3.25000    5.59     2.99   1.30597  2.8748
 3.20000    5.59     3.00   1.30538  2.8748
 3.15000    5.59     3.01   1.30533  2.8748
 3.10000    5.60     2.99   1.30481  2.8747
 3.05000    5.60     3.00   1.30454  2.8749
 3.00000    5.61     3.00   1.30463  2.8749
 2.95000    5.61     3.00   1.30443  2.8751
 2.90000    5.62     3.00   1.30377  2.8751
 2.85000    5.62     3.00   1.30368  2.8752
 2.80000    5.63     3.01   1.30251  2.8751
 2.75000    5.63     3.00   1.30239  2.8751
 2.70000    5.64     3.01   1.30215  2.8752
 2.65000    5.64     3.00   1.30183  2.8754
 2.60000    5.64     3.00   1.30129  2.8753
 2.55000    5.64     3.00   1.30001  2.8753
 2.50000    5.65     3.00   1.29992  2.8751
 2.45000    5.65     3.01   1.29977  2.8753
 2.40000    5.66     3.00   1.29913  2.8753
 2.35000    5.66     3.00   1.29893  2.8753
 2.30000    5.66     3.01   1.29862  2.8755
 2.25000    5.66     3.00   1.29787  2.8755
 2.20000    5.67     3.00   1.29767  2.8755
 2.15000    5.67     3.00   1.29715  2.8755
 2.10000    5.68     3.01   1.29663  2.8756
 2.05000    5.68     3.00   1.29596  2.8758
 2.00000    5.68     3.00   1.29486  2.8759
 1.95000    5.68     3.00   1.29320  2.8758
 1.90000    5.68     3.00   1.29244  2.8760
 1.85000    5.69     3.01   1.29118  2.8759
 1.80000    5.69     3.00   1.29127  2.8759
 1.75000    5.70     3.00   1.29091  2.8765
 1.70000    5.70     3.01   1.29087  2.8769
 1.65000    5.70     3.00   1.29128  2.8772
 1.60000    5.71     3.00   1.29281  2.8770
 1.55000    5.71     3.01   1.29456  2.8770
 1.50000    5.72     3.01   1.29530  2.8769
 1.45000    5.72     3.00   1.29636  2.8772
 1.40000    5.73     3.00   1.29731  2.8774
 1.35000    5.73     3.00   1.29742  2.8773
 1.30000    5.73     3.00   1.29773  2.8774
 1.25000    5.74     3.01   1.29877  2.8775
 1.20000    5.74     3.00   1.29827  2.8776
 1.15000    5.74     3.00   1.29879  2.8775
 1.10000    5.74     3.00   1.29908  2.8772
 1.05000    5.74     2.99   1.29918  2.8772
 1.00000    5.73     3.01   1.29959  2.8773
 0.95000    5.73     3.00   1.29941  2.8775
 0.90000    5.72     3.00   1.29900  2.8773
 0.85000    5.71     2.99   1.29916  2.8776
 0.80000    5.70     3.00   1.29881  2.8776
 0.75000    5.70     3.01   1.29851  2.8776
 0.70000    5.70     3.00   1.29852  2.8778
 0.65000    5.70     3.02   1.29127  2.8789
 0.60000    5.69     3.00   1.29125  2.8787
 0.55000    5.68     3.00   1.29094  2.8788
 0.50000    5.66     3.00   1.29124  2.8788
 0.45000    5.65     2.99   1.29129  2.8788
 0.40000    5.63     3.01   1.29045  2.8789
 0.35000    5.62     3.00   1.29063  2.8788
 0.30000    5.61     3.00   1.29017  2.8789
 0.25000    5.60     3.01   1.28961  2.8789
 0.20000    5.59     3.00   1.30547  2.8780
 0.15000    5.58     2.99   1.30509  2.8779
 0.10000    5.58     3.00   1.30470  2.8779
 0.05000    5.57     2.99   1.30380  2.8780
-0.00000    5.56     2.99   1.30376  2.8781
