 Field[T] Tsmpl[K] Tcntr[K] Signal
 0.00000    1.78     1.80   5.43460
 0.05000    1.78     1.80   5.43400
 0.10000    1.78     1.80   5.43630
 0.15000    1.78     1.80   5.43750
 0.20000    1.78     1.80   5.43630
 0.25000    1.78     1.80   5.43830
 0.30000    1.78     1.80   5.43710
 0.35000    1.78     1.80   5.43820
 0.40000    1.78     1.80   5.44070
 0.45000    1.78     1.80   5.43400
 0.50000    1.78     1.80   5.43600
 0.55000    1.78     1.80   5.44230
 0.60000    1.78     1.80   5.42930
 0.65000    1.78     1.80   5.43690
 0.70000    1.78     1.80   5.42860
 0.75000    1.78     1.80   5.43560
 0.80000    1.78     1.80   5.42470
 0.85000    1.78     1.80   5.43110
 0.90000    1.78     1.80   5.41320
 0.95000    1.78     1.80   5.41080
 1.00000    1.78     1.80   5.40850
 1.05000    1.78     1.80   5.40480
 1.10000    1.78     1.80   5.40060
 1.15000    1.78     1.80   5.39590
 1.20000    1.78     1.80   5.39110
 1.25000    1.78     1.80   5.38900
 1.30000    1.78     1.80   5.38270
 1.35000    1.78     1.80   5.37790
 1.40000    1.78     1.80   5.36600
 1.45000    1.78     1.80   5.36040
 1.50000    1.78     1.80   5.35500
 1.55000    1.78     1.80   5.34750
 1.60000    1.78     1.80   5.33670
 1.65000    1.78     1.81   5.32920
 1.70000    1.78     1.81   5.31920
 1.75000    1.78     1.81   5.31020
 1.80000    1.78     1.81   5.30660
 1.85000    1.78     1.81   5.30480
 1.90000    1.78     1.81   5.31000
 1.95000    1.78     1.81   5.31840
 2.00000    1.78     1.81   5.32100
 2.05000    1.78     1.81   5.32130
 2.10000    1.78     1.81   5.31900
 2.15000    1.78     1.81   5.32130
 2.20000    1.78     1.81   5.31850
 2.25000    1.78     1.81   5.31900
 2.30000    1.78     1.81   5.31400
 2.35000    1.78     1.81   5.31280
 2.40000    1.78     1.81   5.31100
 2.45000    1.78     1.81   5.30930
 2.50000    1.78     1.81   5.30450
 2.55000    1.78     1.81   5.30000
 2.60000    1.78     1.81   5.29490
 2.65000    1.78     1.81   5.29400
 2.70000    1.78     1.81   5.29050
 2.75000    1.78     1.81   5.28720
 2.80000    1.78     1.81   5.28100
 2.85000    1.78     1.81   5.28680
 2.90000    1.78     1.81   5.27450
 2.95000    1.78     1.81   5.27260
 3.00000    1.78     1.81   5.26890
 3.05000    1.78     1.81   5.26410
 3.10000    1.78     1.81   5.26050
 3.15000    1.78     1.81   5.25520
 3.20000    1.78     1.82   5.24780
 3.25000    1.78     1.82   5.24650
 3.30000    1.78     1.82   5.24410
 3.35000    1.78     1.82   5.23860
 3.40000    1.79     1.82   5.23220
 3.45000    1.79     1.82   5.22970
 3.50000    1.79     1.82   5.22490
 3.55000    1.79     1.82   5.22170
 3.60000    1.79     1.82   5.21560
 3.65000    1.79     1.82   5.21590
 3.70000    1.79     1.82   5.21310
 3.75000    1.79     1.82   5.20910
 3.80000    1.79     1.82   5.20600
 3.85000    1.79     1.83   5.20530
 3.90000    1.79     1.83   5.20240
 3.95000    1.79     1.83   5.19900
 4.00000    1.79     1.83   5.19670
 4.05000    1.79     1.83   5.19760
 4.10000    1.79     1.83   5.19010
 4.15000    1.79     1.83   5.19780
 4.20000    1.79     1.83   5.19100
 4.25000    1.79     1.83   5.19050
 4.30000    1.79     1.83   5.19260
 4.35000    1.79     0.00   5.19280
 4.40000    1.79     1.83   5.19380
 4.45000    1.79     1.83   5.19500
 4.50000    1.79     1.83   5.19450
 4.55000    1.79     1.83   5.19660
 4.60000    1.79     1.83   5.19660
 4.65000    1.79     1.83   5.19530
 4.70000    1.79     1.83   5.19510
 4.75000    1.79     1.83   5.19340
 4.80000    1.79     1.83   5.18800
 4.85000    1.79     1.83   5.18450
 4.90000    1.79     1.83   5.17790
 4.95000    1.80     1.83   5.17400
 5.00000    1.80     1.83   5.17140
 5.00000    1.80     1.83   5.17080
 4.95000    1.80     1.83   5.17310
 4.90000    1.80     1.83   5.17900
 4.85000    1.80     1.83   5.18190
 4.80000    1.80     1.83   5.18840
 4.75000    1.80     1.83   5.19540
 4.70000    1.80     1.83   5.20050
 4.65000    1.79     1.83   5.20750
 4.60000    1.79     1.83   5.21020
 4.55000    1.79     1.83   5.21370
 4.50000    1.79     1.83   5.21130
 4.45000    1.79     1.83   5.20950
 4.40000    1.79     1.83   5.20250
 4.35000    1.79     1.83   5.20510
 4.30000    1.79     1.83   5.20470
 4.25000    1.79     1.83   5.20430
 4.20000    1.79     1.83   5.20360
 4.15000    1.79     1.83   5.20280
 4.10000    1.79     1.83   5.20470
 4.05000    1.79     1.83   5.20670
 4.00000    1.79     1.82   5.20670
 3.95000    1.79     1.82   5.20830
 3.90000    1.79     1.82   5.20820
 3.85000    1.79     1.82   5.21190
 3.80000    1.79     1.82   5.21450
 3.75000    1.79     1.82   5.21630
 3.70000    1.79     1.82   5.21940
 3.65000    1.79     1.82   5.21990
 3.60000    1.79     1.82   5.22230
 3.55000    1.78     1.82   5.22890
 3.50000    1.78     1.82   5.22970
 3.45000    1.78     1.82   5.23660
 3.40000    1.78     1.82   5.24110
 3.35000    1.78     1.82   5.24490
 3.30000    1.78     1.82   5.24000
 3.25000    1.78     1.82   5.24700
 3.20000    1.78     1.82   5.24970
 3.15000    1.78     1.82   5.25390
 3.10000    1.78     1.81   5.25450
 3.05000    1.78     1.81   5.26010
 3.00000    1.78     1.81   5.26300
 2.95000    1.78     1.81   5.26820
 2.90000    1.78     1.81   5.26990
 2.85000    1.78     1.81   5.27890
 2.80000    1.78     1.81   5.28080
 2.75000    1.78     1.81   5.28620
 2.70000    1.78     1.81   5.28930
 2.65000    1.78     1.81   5.29290
 2.60000    1.78     1.81   5.29760
 2.55000    1.78     1.81   5.30100
 2.50000    1.78     1.81   5.30510
 2.45000    1.78     1.81   5.31190
 2.40000    1.78     1.81   5.31730
 2.35000    1.78     1.81   5.31460
 2.30000    1.78     1.81   5.31850
 2.25000    1.78     1.81   5.31970
 2.20000    1.78     1.81   5.32170
 2.15000    1.78     1.81   5.32180
 2.10000    1.78     1.81   5.34200
 2.05000    1.78     1.81   5.32710
 2.00000    1.78     1.81   5.32160
 1.95000    1.78     1.80   5.31930
 1.90000    1.78     1.80   5.31080
 1.85000    1.78     1.80   5.31030
 1.80000    1.78     1.80   5.31490
 1.75000    1.78     1.80   5.32540
 1.70000    1.78     1.80   5.33240
 1.65000    1.78     1.80   5.34180
 1.60000    1.78     1.80   5.34950
 1.55000    1.78     1.80   5.36070
 1.50000    1.78     1.80   5.36090
 1.45000    1.78     1.80   5.37240
 1.40000    1.78     1.80   5.38040
 1.35000    1.78     1.80   5.38760
 1.30000    1.78     1.80   5.39200
 1.25000    1.78     1.80   5.40130
 1.20000    1.78     1.80   5.40180
 1.15000    1.78     1.80   5.41020
 1.10000    1.78     1.80   5.41630
 1.05000    1.78     1.80   5.42000
 1.00000    1.78     1.80   5.42360
 0.95000    1.78     1.80   5.42730
 0.90000    1.78     1.80   5.43560
 0.85000    1.78     1.80   5.43810
 0.80000    1.78     1.80   5.44370
 0.75000    1.78     1.80   5.44380
 0.70000    1.78     1.80   5.44400
 0.65000    1.78     1.80   5.44770
 0.60000    1.78     1.80   5.44930
 0.55000    1.78     1.80   5.45420
 0.50000    1.77     1.80   5.45520
 0.45000    1.77     1.80   5.45350
 0.40000    1.77     1.80   5.44980
 0.35000    1.77     1.80   5.45140
 0.30000    1.77     1.80   5.45220
 0.25000    1.77     1.80   5.45190
 0.20000    1.77     1.80   5.45430
 0.15000    1.77     1.80   5.45440
 0.10000    1.78     1.80   5.45360
 0.05000    1.78     1.80   5.45330
-0.00000    1.78     1.80   5.45180
