 Field[T] Tsmpl[K] Tcntr[K] Signal
 0.00000    1.80     1.82   7.95750
 0.05000    1.80     1.82   7.95520
 0.10000    1.80     1.82   7.95910
 0.15000    1.80     1.82   7.94590
 0.20000    1.80     1.82   7.95860
 0.25000    1.80     1.82   7.95270
 0.30000    1.80     1.82   7.94360
 0.35000    1.80     1.82   7.90800
 0.40000    1.80     1.82   7.90700
 0.45000    1.80     1.82   7.90700
 0.50000    1.80     1.82   7.91120
 0.55000    1.80     1.82   7.92050
 0.60000    1.80     1.82   7.91940
 0.65000    1.80     1.82   7.91690
 0.70000    1.80     1.82   7.92180
 0.75000    1.80     1.82   7.91950
 0.80000    1.80     1.82   7.92370
 0.85000    1.80     1.82   7.92390
 0.90000    1.80     1.82   7.92050
 0.95000    1.80     1.82   7.92360
 1.00000    1.80     1.82   7.92240
 1.05000    1.80     1.82   7.91910
 1.10000    1.80     1.83   7.91940
 1.15000    1.80     1.83   7.91740
 1.20000    1.80     1.83   7.92420
 1.25000    1.80     1.83   7.91630
 1.30000    1.80     1.83   7.91590
 1.35000    1.80     1.83   7.92020
 1.40000    1.80     1.83   7.91730
 1.45000    1.80     1.83   7.90720
 1.50000    1.80     1.83   7.91430
 1.55000    1.80     1.83   7.90750
 1.60000    1.80     1.83   7.90500
 1.65000    1.80     1.83   7.90790
 1.70000    1.80     1.83   7.90080
 1.75000    1.81     1.83   7.89380
 1.80000    1.81     1.83   7.89120
 1.85000    1.81     1.83   7.88650
 1.90000    1.81     1.83   7.87810
 1.95000    1.81     1.83   7.86660
 2.00000    1.81     1.83   7.86110
 2.05000    1.81     1.83   7.84170
 2.10000    1.81     1.84   7.81930
 2.15000    1.81     1.84   7.79810
 2.20000    1.81     1.84   7.76710
 2.25000    1.81     1.84   7.76110
 2.30000    1.81     1.84   7.74880
 2.35000    1.81     1.84   7.74930
 2.40000    1.81     1.84   7.74930
 2.45000    1.81     1.84   7.75610
 2.50000    1.81     1.84   7.76380
 2.55000    1.81     1.84   7.77110
 2.60000    1.81     1.84   7.76850
 2.65000    1.81     1.84   7.77950
 2.70000    1.81     1.84   7.78440
 2.75000    1.81     1.84   7.78920
 2.80000    1.81     1.85   7.78800
 2.85000    1.82     1.85   7.79330
 2.90000    1.82     1.85   7.79790
 2.95000    1.82     1.85   7.79710
 3.00000    1.82     1.85   7.80090
 3.05000    1.82     1.85   7.80340
 3.10000    1.82     1.85   7.80430
 3.15000    1.82     1.85   7.80830
 3.20000    1.82     1.85   7.80740
 3.25000    1.82     1.85   7.80610
 3.30000    1.82     1.85   7.80010
 3.35000    1.82     1.85   7.79850
 3.40000    1.82     1.85   7.79200
 3.45000    1.82     1.85   7.78090
 3.50000    1.82     1.85   7.76510
 3.55000    1.82     1.85   7.75520
 3.60000    1.82     1.85   7.75090
 3.65000    1.82     1.85   7.74270
 3.70000    1.82     1.85   7.73770
 3.75000    1.82     1.86   7.73520
 3.80000    1.82     1.86   7.72560
 3.85000    1.82     1.86   7.72860
 3.90000    1.82     1.86   7.73030
 3.95000    1.82     1.86   7.73050
 4.00000    1.82     1.86   7.72800
 4.05000    1.82     1.86   7.73060
 4.10000    1.82     1.86   7.73050
 4.15000    1.82     1.86   7.73330
 4.20000    1.82     1.86   7.73470
 4.25000    1.82     1.86   7.73650
 4.30000    1.83     1.86   7.73930
 4.35000    1.83     1.86   7.74630
 4.40000    1.83     1.86   7.75420
 4.45000    1.83     1.86   7.75060
 4.50000    1.83     1.86   7.75480
 4.55000    1.83     1.86   7.75860
 4.60000    1.83     1.86   7.75940
 4.65000    1.83     1.86   7.76360
 4.70000    1.83     1.86   7.76490
 4.75000    1.83     1.86   7.77030
 4.80000    1.83     1.86   7.77650
 4.85000    0.00     1.86   7.78000
 4.90000    0.00     1.86   7.78470
 4.95000    1.83     1.87   7.78470
 5.00000    1.83     1.87   7.79030
 5.00000    1.83     1.87   7.79010
 4.95000    1.83     1.87   7.78730
 4.90000    1.83     1.87   7.78570
 4.85000    1.83     1.87   7.77930
 4.80000    1.83     1.87   7.77640
 4.75000    1.83     1.87   7.77610
 4.70000    1.83     1.86   7.77780
 4.65000    1.83     1.86   7.77540
 4.60000    1.83     1.86   7.76910
 4.55000    1.83     1.86   7.76840
 4.50000    1.83     1.86   7.76690
 4.45000    1.83     1.86   7.76250
 4.40000    1.82     1.86   7.76550
 4.35000    1.82     1.86   7.76530
 4.30000    1.82     1.86   7.76340
 4.25000    1.82     1.86   7.76260
 4.20000    1.82     1.86   7.76080
 4.15000    1.82     1.86   7.75310
 4.10000    1.82     1.86   7.75550
 4.05000    1.82     1.86   7.74920
 4.00000    1.82     1.86   7.74970
 3.95000    1.82     1.86   7.74960
 3.90000    1.82     1.85   7.74930
 3.85000    1.82     1.85   7.74440
 3.80000    1.82     1.85   7.73710
 3.75000    1.82     1.85   7.74170
 3.70000    1.82     1.85   7.73540
 3.65000    1.82     1.85   7.73900
 3.60000    1.82     1.85   7.73750
 3.55000    1.82     1.85   7.74200
 3.50000    1.82     1.85   7.74170
 3.45000    1.82     1.85   7.74070
 3.40000    1.82     1.85   7.74790
 3.35000    1.82     1.85   7.75230
 3.30000    1.82     1.85   7.75530
 3.25000    1.82     1.85   7.76750
 3.20000    1.82     1.85   7.77450
 3.15000    1.82     1.85   7.77980
 3.10000    1.81     1.84   7.78640
 3.05000    1.81     1.84   7.79650
 3.00000    1.81     1.84   7.80360
 2.95000    1.81     1.84   7.79010
 2.90000    1.81     1.84   7.78930
 2.85000    1.81     1.84   7.78220
 2.80000    1.81     1.84   7.77520
 2.75000    1.81     1.84   7.76600
 2.70000    1.81     1.84   7.75980
 2.65000    1.81     1.84   7.75610
 2.60000    1.81     1.84   7.74770
 2.55000    1.81     1.84   7.73610
 2.50000    1.81     1.84   7.72850
 2.45000    1.81     1.84   7.72120
 2.40000    1.81     1.84   7.71920
 2.35000    1.81     1.84   7.71840
 2.30000    1.81     1.84   7.71660
 2.25000    1.81     1.84   7.72140
 2.20000    1.81     1.84   7.73180
 2.15000    1.81     1.84   7.75300
 2.10000    1.81     1.84   7.77590
 2.05000    1.81     1.83   7.79930
 2.00000    1.81     1.83   7.82000
 1.95000    1.81     1.83   7.83150
 1.90000    1.81     1.83   7.84620
 1.85000    1.81     1.83   7.85650
 1.80000    1.81     1.83   7.85280
 1.75000    1.81     1.83   7.85590
 1.70000    1.81     1.83   7.85250
 1.65000    1.81     1.83   7.86040
 1.60000    1.81     1.83   7.85570
 1.55000    1.81     1.83   7.86090
 1.50000    1.81     1.83   7.86690
 1.45000    1.81     1.83   7.86800
 1.40000    1.81     1.83   7.86810
 1.35000    1.81     1.83   7.87590
 1.30000    1.81     1.83   7.87250
 1.25000    1.81     1.83   7.87880
 1.20000    1.81     1.83   7.88130
 1.15000    1.80     1.83   7.88590
 1.10000    1.80     1.83   7.88580
 1.05000    1.80     1.83   7.89020
 1.00000    1.80     1.83   7.89100
 0.95000    1.80     1.83   7.89330
 0.90000    1.80     1.83   7.89520
 0.85000    1.80     1.83   7.89400
 0.80000    1.80     1.83   7.90060
 0.75000    1.80     1.83   7.90050
 0.70000    1.80     1.82   7.90160
 0.65000    1.80     1.82   7.89800
 0.60000    1.80     1.82   7.89160
 0.55000    1.80     1.82   7.89240
 0.50000    1.80     1.82   7.89390
 0.45000    1.80     1.82   7.89290
 0.40000    1.80     1.82   7.89160
 0.35000    1.80     1.82   7.89470
 0.30000    1.80     1.82   7.89210
 0.25000    1.80     1.82   7.92260
 0.20000    1.80     1.82   7.92260
 0.15000    1.80     1.82   7.94310
 0.10000    1.80     1.82   7.94690
 0.05000    1.80     1.82   7.94330
-0.00000    1.80     1.82   7.94570
