 Field[T] Tsmpl[K] Tcntr[K] Signal   Mirror[MM]
 0.00000    1.80     1.80   0.37510  -10.7413
 0.05000    1.80     1.80   0.37370  -10.7437
 0.10000    1.80     1.80   0.37526  -10.7498
 0.15000    1.80     1.80   0.37783  -10.7638
 0.20000    1.80     1.80   0.38821  -10.7712
 0.25000    1.80     1.80   0.39920  -10.7751
 0.30000    1.80     1.80   0.41044  -10.7763
 0.35000    1.80     1.80   0.41886  -10.7743
 0.40000    1.80     1.80   0.42744  -10.7687
 0.45000    1.80     1.80   0.43672  -10.7590
 0.50000    1.80     1.80   0.44382  -10.7496
 0.55000    1.80     1.80   0.44920  -10.7395
 0.60000    1.80     1.80   0.45334  -10.7267
 0.65000    1.80     1.80   0.45232  -10.7164
 0.70000    1.80     1.80   0.45217  -10.7089
 0.75000    1.80     1.80   0.45123  -10.7035
 0.80000    1.80     1.80   0.45162  -10.6990
 0.85000    1.80     1.80   0.44936  -10.6943
 0.90000    1.80     1.80   0.45029  -10.6906
 0.95000    1.80     1.80   0.44951  -10.6882
 1.00000    1.80     1.80   0.44866  -10.6838
 1.05000    1.80     1.80   0.44803  -10.6809
 1.10000    1.80     1.80   0.44920  -10.6782
 1.15000    1.80     1.80   0.44702  -10.6750
 1.20000    1.80     1.80   0.44452  -10.6733
 1.25000    1.80     1.80   0.44359  -10.6711
 1.30000    1.80     1.80   0.44530  -10.6708
 1.35000    1.80     1.80   0.44483  -10.6695
 1.40000    1.80     1.80   0.44265  -10.6681
 1.45000    1.80     1.80   0.44195  -10.6676
 1.50000    1.80     1.80   0.44164  -10.6664
 1.55000    1.80     1.80   0.44015  -10.6651
 1.60000    1.80     1.80   0.44015  -10.6646
 1.65000    1.80     1.80   0.44039  -10.6641
 1.70000    1.80     1.80   0.43774  -10.6626
 1.75000    1.80     1.80   0.43859  -10.6626
 1.80000    1.80     1.80   0.43883  -10.6629
 1.85000    1.80     1.80   0.43727  -10.6621
 1.90000    1.80     1.80   0.43664  -10.6620
 1.95000    1.80     1.80   0.43774  -10.6608
 2.00000    1.80     1.80   0.43594  -10.6613
 2.05000    1.80     1.80   0.43657  -10.6614
 2.10000    1.80     1.80   0.43649  -10.6605
 2.15000    1.80     1.80   0.43540  -10.6609
 2.20000    1.80     1.80   0.43547  -10.6607
 2.25000    1.80     1.80   0.43493  -10.6597
 2.30000    1.80     1.80   0.43649  -10.6606
 2.35000    1.80     1.80   0.43368  -10.6603
 2.40000    1.80     1.80   0.43337  -10.6587
 2.45000    1.80     1.80   0.43469  -10.6598
 2.50000    1.80     1.80   0.43345  -10.6593
 2.55000    1.80     1.80   0.43360  -10.6597
 2.60000    1.80     1.80   0.43290  -10.6593
 2.65000    1.80     1.80   0.43360  -10.6588
 2.70000    1.80     1.80   0.43251  -10.6591
 2.75000    1.80     1.80   0.43165  -10.6569
 2.80000    1.80     1.80   0.43446  -10.6580
 2.85000    1.80     1.80   0.43298  -10.6580
 2.90000    1.80     1.80   0.43235  -10.6588
 2.95000    1.80     1.80   0.43423  -10.6585
 3.00000    1.80     1.80   0.43321  -10.6578
 3.00000    1.80     1.80   0.43274  -10.6581
 2.95000    1.80     1.80   0.43251  -10.6581
 2.90000    1.80     1.80   0.43399  -10.6595
 2.85000    1.80     1.80   0.43337  -10.6596
 2.80000    1.80     1.80   0.43220  -10.6586
 2.75000    1.80     1.80   0.43391  -10.6591
 2.70000    1.80     1.80   0.43267  -10.6585
 2.65000    1.80     1.80   0.43360  -10.6588
 2.60000    1.80     1.80   0.43290  -10.6589
 2.55000    1.80     1.80   0.43384  -10.6587
 2.50000    1.80     1.80   0.43306  -10.6593
 2.45000    1.80     1.80   0.43469  -10.6596
 2.40000    1.80     1.80   0.43446  -10.6596
 2.35000    1.80     1.80   0.43454  -10.6590
 2.30000    1.80     1.80   0.43415  -10.6603
 2.25000    1.80     1.80   0.43438  -10.6603
 2.20000    1.80     1.80   0.43399  -10.6602
 2.15000    1.80     1.80   0.43321  -10.6580
 2.10000    1.80     1.80   0.43571  -10.6598
 2.05000    1.80     1.80   0.43532  -10.6605
 2.00000    1.80     1.80   0.43438  -10.6615
 1.95000    1.80     1.80   0.43672  -10.6618
 1.90000    1.80     1.80   0.43641  -10.6630
 1.85000    1.80     1.80   0.43766  -10.6629
 1.80000    1.80     1.80   0.43664  -10.6623
 1.75000    1.80     1.80   0.43703  -10.6629
 1.70000    1.80     1.80   0.43649  -10.6633
 1.65000    1.80     1.80   0.43571  -10.6627
 1.60000    1.80     1.80   0.43836  -10.6652
 1.55000    1.80     1.80   0.43703  -10.6641
 1.50000    1.80     1.80   0.43727  -10.6654
 1.45000    1.80     1.80   0.43891  -10.6662
 1.40000    1.80     1.80   0.43969  -10.6676
 1.35000    1.80     1.80   0.43992  -10.6690
 1.30000    1.80     1.80   0.44187  -10.6710
 1.25000    1.80     1.80   0.44203  -10.6726
 1.20000    1.80     1.80   0.44132  -10.6743
 1.15000    1.80     1.80   0.44226  -10.6756
 1.10000    1.80     1.80   0.44382  -10.6780
 1.05000    1.80     1.80   0.44491  -10.6809
 1.00000    1.80     1.80   0.44491  -10.6826
 0.95000    1.80     1.80   0.44702  -10.6867
 0.90000    1.80     1.80   0.44694  -10.6905
 0.85000    1.80     1.80   0.44772  -10.6941
 0.80000    1.80     1.80   0.44702  -10.6976
 0.75000    1.80     1.80   0.44702  -10.7026
 0.70000    1.80     1.80   0.44764  -10.7085
 0.65000    1.80     1.80   0.44819  -10.7164
 0.60000    1.80     1.80   0.44795  -10.7261
 0.55000    1.80     1.80   0.44546  -10.7377
 0.50000    1.80     1.80   0.43898  -10.7490
 0.45000    1.80     1.80   0.43329  -10.7590
 0.40000    1.80     1.80   0.42440  -10.7672
 0.35000    1.80     1.80   0.41512  -10.7739
 0.30000    1.80     1.80   0.40381  -10.7761
 0.25000    1.80     1.80   0.39382  -10.7752
 0.20000    1.80     1.80   0.38173  -10.7722
 0.15000    1.80     1.80   0.37237  -10.7671
 0.10000    1.80     1.80   0.36894  -10.7521
 0.05000    1.80     1.80   0.36777  -10.7442
 -0.00000    1.80     1.80   0.36871  -10.7419
