 Field[T] Tsmpl[K] Tcntr[K] Signal   Mirror[MM]
 0.00000    1.78     1.78   0.32196  -10.7224
 0.05000    1.78     1.78   0.32382  -10.7227
 0.10000    1.78     1.78   0.31988  -10.7234
 0.15000    1.78     1.78   0.32039  -10.7249
 0.20000    1.78     1.78   0.32047  -10.7259
 0.25000    1.78     1.78   0.31576  -10.7279
 0.30000    1.78     1.78   0.31144  -10.7323
 0.35000    1.78     1.78   0.31542  -10.7404
 0.40000    1.78     1.78   0.32020  -10.7449
 0.45000    1.78     1.78   0.32431  -10.7469
 0.50000    1.78     1.78   0.33318  -10.7485
 0.55000    1.78     1.78   0.33617  -10.7498
 0.60000    1.78     1.78   0.33943  -10.7505
 0.65000    1.78     1.78   0.34635  -10.7509
 0.70000    1.78     1.78   0.35002  -10.7503
 0.75000    1.78     1.78   0.35178  -10.7497
 0.80000    1.78     1.78   0.35808  -10.7486
 0.85000    1.78     1.78   0.35924  -10.7468
 0.90000    1.78     1.78   0.35799  -10.7466
 0.95000    1.78     1.78   0.36179  -10.7464
 1.00000    1.78     1.78   0.36412  -10.7457
 1.05000    1.78     1.78   0.36170  -10.7455
 1.10000    1.78     1.78   0.36455  -10.7452
 1.15000    1.78     1.78   0.36739  -10.7447
 1.20000    1.78     1.78   0.36423  -10.7443
 1.25000    1.78     1.78   0.36620  -10.7440
 1.30000    1.78     1.78   0.36974  -10.7441
 1.35000    1.78     1.78   0.36745  -10.7444
 1.40000    1.78     1.78   0.36777  -10.7433
 1.45000    1.78     1.78   0.37133  -10.7437
 1.50000    1.78     1.78   0.37027  -10.7423
 1.55000    1.78     1.78   0.36938  -10.7431
 1.60000    1.78     1.78   0.37280  -10.7424
 1.65000    1.78     1.78   0.37191  -10.7426
 1.70000    1.78     1.78   0.36974  -10.7419
 1.75000    1.78     1.78   0.37309  -10.7416
 1.80000    1.78     1.78   0.37301  -10.7406
 1.85000    1.78     1.78   0.37063  -10.7405
 1.90000    1.78     1.78   0.37352  -10.7407
 1.95000    1.78     1.78   0.37434  -10.7408
 2.00000    1.78     1.78   0.37104  -10.7406
 2.05000    1.78     1.78   0.37267  -10.7397
 2.10000    1.78     1.78   0.37507  -10.7403
 2.15000    1.78     1.78   0.37235  -10.7401
 2.20000    1.78     1.78   0.37241  -10.7401
 2.25000    1.78     1.78   0.37449  -10.7394
 2.30000    1.78     1.78   0.37282  -10.7395
 2.35000    1.78     1.78   0.37199  -10.7394
 2.40000    1.78     1.78   0.37456  -10.7388
 2.45000    1.78     1.78   0.37409  -10.7386
 2.50000    1.78     1.78   0.37231  -10.7395
 2.55000    1.78     1.78   0.37502  -10.7392
 2.60000    1.78     1.78   0.37369  -10.7386
 2.65000    1.78     1.78   0.37182  -10.7390
 2.70000    1.78     1.78   0.37536  -10.7390
 2.75000    1.78     1.78   0.37545  -10.7386
 2.80000    1.78     1.78   0.37163  -10.7383
 2.85000    1.78     1.78   0.37424  -10.7383
 2.90000    1.78     1.78   0.37475  -10.7374
 2.95000    1.78     1.78   0.37023  -10.7349
 3.00000    1.78     1.78   0.37316  -10.7362
 3.05000    1.78     1.78   0.37551  -10.7371
 3.10000    1.78     1.78   0.37246  -10.7366
 3.15000    1.78     1.78   0.37401  -10.7372
 3.20000    1.78     1.78   0.37721  -10.7381
 3.25000    1.78     1.78   0.37396  -10.7386
 3.30000    1.78     1.78   0.37227  -10.7376
 3.35000    1.78     1.78   0.37492  -10.7370
 3.40000    1.78     1.78   0.37288  -10.7371
 3.45000    1.78     1.78   0.37286  -10.7383
 3.50000    1.78     1.78   0.37519  -10.7377
 3.55000    1.78     1.78   0.37434  -10.7373
 3.60000    1.78     1.78   0.37140  -10.7365
 3.65000    1.78     1.78   0.37403  -10.7361
 3.70000    1.78     1.78   0.37538  -10.7373
 3.75000    1.78     1.78   0.37231  -10.7365
 3.80000    1.78     1.78   0.37415  -10.7368
 3.85000    1.78     1.78   0.37555  -10.7366
 3.90000    1.78     1.78   0.37176  -10.7362
 3.95000    1.78     1.78   0.37417  -10.7372
 4.00000    1.78     1.78   0.37549  -10.7363
 4.00000    1.78     1.78   0.37411  -10.7367
 3.95000    1.78     1.78   0.37161  -10.7361
 3.90000    1.78     1.78   0.37458  -10.7357
 3.85000    1.78     1.78   0.37407  -10.7351
 3.80000    1.78     1.78   0.37210  -10.7359
 3.75000    1.78     1.78   0.37475  -10.7356
 3.70000    1.78     1.78   0.37555  -10.7352
 3.65000    1.78     1.78   0.37284  -10.7358
 3.60000    1.78     1.78   0.37396  -10.7349
 3.55000    1.78     1.78   0.37581  -10.7352
 3.50000    1.78     1.78   0.37288  -10.7354
 3.45000    1.78     1.78   0.37347  -10.7352
 3.40000    1.78     1.78   0.37666  -10.7351
 3.35000    1.78     1.78   0.37267  -10.7346
 3.30000    1.78     1.78   0.37214  -10.7348
 3.25000    1.78     1.78   0.37581  -10.7352
 3.20000    1.78     1.78   0.37384  -10.7350
 3.15000    1.78     1.78   0.37241  -10.7346
 3.10000    1.78     1.78   0.37538  -10.7353
 3.05000    1.78     1.78   0.37477  -10.7348
 3.00000    1.78     1.78   0.37246  -10.7351
 2.95000    1.78     1.78   0.37581  -10.7352
 2.90000    1.78     1.78   0.37585  -10.7350
 2.85000    1.78     1.78   0.37252  -10.7350
 2.80000    1.78     1.78   0.37479  -10.7349
 2.75000    1.78     1.78   0.37608  -10.7354
 2.70000    1.78     1.78   0.37271  -10.7351
 2.65000    1.78     1.78   0.37460  -10.7356
 2.60000    1.78     1.78   0.37566  -10.7347
 2.55000    1.78     1.78   0.37333  -10.7354
 2.50000    1.78     1.78   0.37328  -10.7348
 2.45000    1.78     1.78   0.37509  -10.7344
 2.40000    1.78     1.78   0.37265  -10.7342
 2.35000    1.78     1.78   0.37118  -10.7321
 2.30000    1.78     1.78   0.37543  -10.7341
 2.25000    1.78     1.78   0.37362  -10.7339
 2.20000    1.78     1.78   0.37224  -10.7347
 2.15000    1.78     1.78   0.37490  -10.7355
 2.10000    1.78     1.78   0.37583  -10.7353
 2.05000    1.78     1.78   0.37328  -10.7367
 2.00000    1.78     1.78   0.37460  -10.7356
 1.95000    1.78     1.78   0.37613  -10.7363
 1.90000    1.78     1.78   0.37201  -10.7356
 1.85000    1.78     1.78   0.37447  -10.7362
 1.80000    1.78     1.78   0.37468  -10.7364
 1.75000    1.78     1.78   0.37108  -10.7364
 1.70000    1.78     1.78   0.37239  -10.7374
 1.65000    1.78     1.78   0.37417  -10.7368
 1.60000    1.78     1.78   0.37101  -10.7372
 1.55000    1.78     1.78   0.37042  -10.7379
 1.50000    1.78     1.78   0.37403  -10.7399
 1.45000    1.78     1.78   0.37125  -10.7398
 1.40000    1.78     1.78   0.36838  -10.7391
 1.35000    1.78     1.78   0.37199  -10.7404
 1.30000    1.78     1.78   0.36940  -10.7409
 1.25000    1.78     1.78   0.36711  -10.7412
 1.20000    1.78     1.78   0.36817  -10.7409
 1.15000    1.78     1.78   0.36709  -10.7415
 1.10000    1.78     1.78   0.36361  -10.7422
 1.05000    1.78     1.78   0.36592  -10.7423
 1.00000    1.78     1.78   0.36552  -10.7430
 0.95000    1.78     1.78   0.36009  -10.7434
 0.90000    1.78     1.78   0.36098  -10.7437
 0.85000    1.78     1.78   0.36122  -10.7443
 0.80000    1.78     1.78   0.35517  -10.7447
 0.75000    1.78     1.78   0.35360  -10.7458
 0.70000    1.78     1.78   0.35296  -10.7476
 0.65000    1.78     1.78   0.34592  -10.7480
 0.60000    1.78     1.78   0.34117  -10.7483
 0.55000    1.78     1.78   0.33907  -10.7482
 0.50000    1.78     1.78   0.33233  -10.7472
 0.45000    1.78     1.78   0.32524  -10.7467
 0.40000    1.78     1.78   0.32242  -10.7445
 0.35000    1.78     1.78   0.31500  -10.7400
 0.30000    1.78     1.78   0.30993  -10.7326
 0.25000    1.78     1.78   0.31606  -10.7285
 0.20000    1.78     1.78   0.31865  -10.7257
 0.15000    1.78     1.78   0.31776  -10.7235
 0.10000    1.78     1.78   0.32179  -10.7238
 0.05000    1.78     1.78   0.32423  -10.7238
 -0.00000    1.78     1.78   0.32096  -10.7237
