 Field[T] Tsmpl[K] Tcntr[K] Signal   Mirror[MM]
 0.00000    1.79     1.79   0.61424  -10.6857
 0.05000    1.79     1.79   0.61005  -10.6859
 0.10000    1.79     1.79   0.60433  -10.6855
 0.15000    1.79     1.79   0.60020  -10.6857
 0.20000    1.79     1.79   0.58806  -10.6862
 0.25000    1.79     1.79   0.56216  -10.6910
 0.30000    1.79     1.79   0.56863  -10.6967
 0.35000    1.79     1.79   0.57780  -10.7025
 0.40000    1.79     1.79   0.57900  -10.7056
 0.45000    1.79     1.79   0.59459  -10.7097
 0.50000    1.79     1.79   0.60559  -10.7118
 0.55000    1.79     1.79   0.61510  -10.7139
 0.60000    1.79     1.79   0.62770  -10.7144
 0.65000    1.79     1.79   0.64569  -10.7142
 0.70000    1.79     1.79   0.65073  -10.7130
 0.75000    1.79     1.79   0.65474  -10.7110
 0.80000    1.79     1.79   0.66505  -10.7099
 0.85000    1.79     1.79   0.66849  -10.7080
 0.90000    1.79     1.79   0.66184  -10.7066
 0.95000    1.79     1.79   0.67479  -10.7068
 1.00000    1.79     1.79   0.67548  -10.7056
 1.05000    1.79     1.79   0.67221  -10.7056
 1.10000    1.79     1.79   0.67800  -10.7047
 1.15000    1.79     1.79   0.67949  -10.7036
 1.20000    1.79     1.79   0.67616  -10.7022
 1.25000    1.79     1.79   0.67513  -10.7017
 1.30000    1.79     1.79   0.68115  -10.7014
 1.35000    1.79     1.79   0.67897  -10.7013
 1.40000    1.79     1.79   0.67296  -10.7001
 1.45000    1.79     1.79   0.68464  -10.7005
 1.50000    1.79     1.79   0.67811  -10.6995
 1.55000    1.79     1.79   0.67450  -10.6988
 1.60000    1.79     1.79   0.67932  -10.6985
 1.65000    1.79     1.79   0.67851  -10.6986
 1.70000    1.79     1.79   0.67238  -10.6979
 1.75000    1.79     1.79   0.67628  -10.6973
 1.80000    1.79     1.79   0.67502  -10.6963
 1.85000    1.79     1.79   0.67296  -10.6961
 1.90000    1.79     1.79   0.67129  -10.6965
 1.95000    1.79     1.79   0.67519  -10.6952
 2.00000    1.79     1.79   0.67284  -10.6960
 2.05000    1.79     1.79   0.67181  -10.6960
 2.10000    1.79     1.79   0.67404  -10.6951
 2.15000    1.79     1.79   0.67250  -10.6960
 2.20000    1.79     1.79   0.66877  -10.6956
 2.25000    1.79     1.79   0.67473  -10.6956
 2.30000    1.79     1.79   0.67462  -10.6956
 2.35000    1.79     1.79   0.66505  -10.6944
 2.40000    1.79     1.79   0.67032  -10.6947
 2.45000    1.79     1.79   0.67227  -10.6944
 2.50000    1.79     1.79   0.66614  -10.6942
 2.55000    1.79     1.79   0.66654  -10.6939
 2.60000    1.79     1.79   0.66860  -10.6936
 2.65000    1.79     1.79   0.66711  -10.6942
 2.70000    1.79     1.79   0.66476  -10.6947
 2.75000    1.79     1.79   0.66809  -10.6937
 2.80000    1.79     1.79   0.66528  -10.6934
 2.85000    1.79     1.79   0.66224  -10.6942
 2.90000    1.79     1.79   0.66769  -10.6940
 2.95000    1.79     1.79   0.66631  -10.6930
 3.00000    1.79     1.79   0.66419  -10.6940
 3.00000    1.79     1.79   0.66058  -10.6931
 2.95000    1.79     1.79   0.66797  -10.6936
 2.90000    1.79     1.79   0.66373  -10.6928
 2.85000    1.79     1.79   0.65932  -10.6932
 2.80000    1.79     1.79   0.66431  -10.6924
 2.75000    1.79     1.79   0.66505  -10.6930
 2.70000    1.79     1.79   0.66213  -10.6931
 2.65000    1.79     1.79   0.66574  -10.6936
 2.60000    1.79     1.79   0.66975  -10.6939
 2.55000    1.79     1.79   0.66643  -10.6930
 2.50000    1.79     1.79   0.66791  -10.6932
 2.45000    1.79     1.79   0.67284  -10.6925
 2.40000    1.79     1.79   0.66734  -10.6927
 2.35000    1.79     1.79   0.66832  -10.6934
 2.30000    1.79     1.79   0.67542  -10.6926
 2.25000    1.79     1.79   0.67112  -10.6929
 2.20000    1.79     1.79   0.67112  -10.6933
 2.15000    1.79     1.79   0.67118  -10.6907
 2.10000    1.79     1.79   0.67353  -10.6925
 2.05000    1.79     1.79   0.67072  -10.6937
 2.00000    1.79     1.79   0.67989  -10.6938
 1.95000    1.79     1.79   0.67966  -10.6943
 1.90000    1.79     1.79   0.67284  -10.6948
 1.85000    1.79     1.79   0.67645  -10.6948
 1.80000    1.79     1.79   0.67995  -10.6952
 1.75000    1.79     1.79   0.67616  -10.6941
 1.70000    1.79     1.79   0.67433  -10.6938
 1.65000    1.79     1.79   0.68017  -10.6941
 1.60000    1.79     1.79   0.67571  -10.6943
 1.55000    1.79     1.79   0.67840  -10.6947
 1.50000    1.79     1.79   0.68161  -10.6955
 1.45000    1.79     1.79   0.67697  -10.6952
 1.40000    1.79     1.79   0.67519  -10.6958
 1.35000    1.79     1.79   0.68075  -10.6963
 1.30000    1.79     1.79   0.68103  -10.6970
 1.25000    1.79     1.79   0.67490  -10.6993
 1.20000    1.79     1.79   0.68063  -10.6998
 1.15000    1.79     1.79   0.68189  -10.7005
 1.10000    1.79     1.79   0.67513  -10.7016
 1.05000    1.79     1.79   0.67765  -10.7024
 1.00000    1.79     1.79   0.68086  -10.7032
 0.95000    1.79     1.79   0.67353  -10.7031
 0.90000    1.79     1.79   0.66866  -10.7045
 0.85000    1.79     1.79   0.66918  -10.7048
 0.80000    1.79     1.79   0.66791  -10.7066
 0.75000    1.79     1.79   0.65852  -10.7075
 0.70000    1.79     1.79   0.65835  -10.7089
 0.65000    1.79     1.79   0.64649  -10.7100
 0.60000    1.79     1.79   0.62993  -10.7111
 0.55000    1.79     1.79   0.61618  -10.7088
 0.50000    1.79     1.79   0.61298  -10.7078
 0.45000    1.79     1.79   0.59739  -10.7052
 0.40000    1.79     1.79   0.58502  -10.7016
 0.35000    1.79     1.79   0.58387  -10.6974
 0.30000    1.79     1.79   0.57276  -10.6933
 0.25000    1.79     1.79   0.56640  -10.6874
 0.20000    1.79     1.79   0.59103  -10.6809
 0.15000    1.79     1.79   0.60129  -10.6796
 0.10000    1.79     1.79   0.60450  -10.6801
 0.05000    1.79     1.79   0.61601  -10.6803
 -0.00000    1.79     1.79   0.61911  -10.6799
