 Field[T] Tsmpl[K] Tcntr[K] Signal   Mirror[MM]
 0.00000    1.69     1.69   0.80586  -10.8755
 0.05000    1.69     1.69   0.80575  -10.8755
 0.10000    1.69     1.69   0.80544  -10.8755
 0.15000    1.69     1.69   0.80373  -10.8755
 0.20000    1.69     1.69   0.80532  -10.8760
 0.25000    1.69     1.69   0.80449  -10.8761
 0.30000    1.69     1.69   0.80397  -10.8762
 0.35000    1.69     1.69   0.80248  -10.8763
 0.40000    1.69     1.69   0.80232  -10.8768
 0.45000    1.69     1.69   0.80189  -10.8766
 0.50000    1.69     1.69   0.79986  -10.8766
 0.55000    1.69     1.69   0.79832  -10.8768
 0.60000    1.69     1.69   0.79562  -10.8767
 0.65000    1.69     1.69   0.79216  -10.8766
 0.70000    1.69     1.69   0.78691  -10.8763
 0.75000    1.69     1.69   0.77762  -10.8768
 0.80000    1.69     1.69   0.76600  -10.8801
 0.85000    1.69     1.69   0.76608  -10.8841
 0.90000    1.69     1.69   0.76970  -10.8872
 0.95000    1.69     1.69   0.77494  -10.8895
 1.00000    1.69     1.69   0.78028  -10.8914
 1.05000    1.69     1.69   0.78573  -10.8926
 1.10000    1.69     1.69   0.79181  -10.8935
 1.15000    1.69     1.69   0.79810  -10.8941
 1.20000    1.69     1.69   0.80410  -10.8939
 1.25000    1.69     1.69   0.80869  -10.8933
 1.30000    1.69     1.69   0.81290  -10.8930
 1.35000    1.69     1.69   0.81526  -10.8927
 1.40000    1.69     1.69   0.81745  -10.8923
 1.45000    1.69     1.69   0.81878  -10.8922
 1.50000    1.69     1.69   0.81973  -10.8918
 1.55000    1.69     1.69   0.82018  -10.8913
 1.60000    1.69     1.69   0.82076  -10.8912
 1.65000    1.69     1.69   0.82168  -10.8912
 1.70000    1.69     1.69   0.82198  -10.8913
 1.75000    1.69     1.69   0.82286  -10.8911
 1.80000    1.69     1.69   0.82359  -10.8912
 1.85000    1.69     1.69   0.82382  -10.8911
 1.90000    1.69     1.69   0.82449  -10.8908
 1.95000    1.69     1.69   0.82506  -10.8907
 2.00000    1.69     1.69   0.82505  -10.8904
 2.05000    1.69     1.69   0.82531  -10.8901
 2.10000    1.69     1.69   0.82563  -10.8902
 2.15000    1.69     1.69   0.82521  -10.8898
 2.20000    1.69     1.69   0.82534  -10.8898
 2.25000    1.69     1.69   0.82555  -10.8898
 2.30000    1.69     1.69   0.82566  -10.8896
 2.35000    1.69     1.69   0.82533  -10.8895
 2.40000    1.69     1.69   0.82515  -10.8895
 2.45000    1.69     1.69   0.82545  -10.8893
 2.50000    1.69     1.69   0.82558  -10.8892
 2.55000    1.69     1.69   0.82604  -10.8891
 2.60000    1.69     1.69   0.82588  -10.8886
 2.65000    1.69     1.69   0.82523  -10.8884
 2.70000    1.69     1.69   0.82514  -10.8886
 2.75000    1.69     1.69   0.82533  -10.8883
 2.80000    1.69     1.69   0.82515  -10.8884
 2.85000    1.69     1.69   0.82482  -10.8883
 2.90000    1.69     1.69   0.82488  -10.8884
 2.95000    1.69     1.69   0.82526  -10.8882
 3.00000    1.69     1.69   0.82604  -10.8882
 3.00000    1.69     1.69   0.82519  -10.8882
 2.95000    1.69     1.69   0.82522  -10.8884
 2.90000    1.69     1.69   0.82547  -10.8884
 2.85000    1.69     1.69   0.82542  -10.8883
 2.80000    1.69     1.69   0.82478  -10.8884
 2.75000    1.69     1.69   0.82448  -10.8884
 2.70000    1.69     1.69   0.82477  -10.8882
 2.65000    1.69     1.69   0.82472  -10.8885
 2.60000    1.69     1.69   0.82446  -10.8884
 2.55000    1.69     1.69   0.82418  -10.8885
 2.50000    1.69     1.69   0.82467  -10.8886
 2.45000    1.69     1.69   0.82432  -10.8890
 2.40000    1.69     1.69   0.82443  -10.8889
 2.35000    1.69     1.69   0.82397  -10.8892
 2.30000    1.69     1.69   0.82378  -10.8893
 2.25000    1.69     1.69   0.82335  -10.8892
 2.20000    1.69     1.69   0.82306  -10.8894
 2.15000    1.69     1.69   0.82296  -10.8897
 2.10000    1.69     1.69   0.82266  -10.8895
 2.05000    1.69     1.69   0.82226  -10.8899
 2.00000    1.69     1.69   0.82215  -10.8899
 1.95000    1.69     1.69   0.82162  -10.8904
 1.90000    1.69     1.69   0.82129  -10.8903
 1.85000    1.69     1.69   0.82078  -10.8904
 1.80000    1.69     1.69   0.81902  -10.8903
 1.75000    1.69     1.69   0.81830  -10.8905
 1.70000    1.69     1.69   0.81764  -10.8905
 1.65000    1.69     1.69   0.81650  -10.8907
 1.60000    1.69     1.69   0.81519  -10.8910
 1.55000    1.69     1.69   0.81462  -10.8913
 1.50000    1.69     1.69   0.81720  -10.8918
 1.45000    1.69     1.69   0.82079  -10.8925
 1.40000    1.69     1.69   0.81982  -10.8925
 1.35000    1.69     1.69   0.81835  -10.8930
 1.30000    1.69     1.69   0.81566  -10.8936
 1.25000    1.69     1.69   0.81219  -10.8942
 1.20000    1.69     1.69   0.80718  -10.8946
 1.15000    1.69     1.69   0.80032  -10.8947
 1.10000    1.69     1.69   0.79332  -10.8942
 1.05000    1.69     1.69   0.78727  -10.8932
 1.00000    1.69     1.69   0.78163  -10.8919
 0.95000    1.69     1.69   0.77640  -10.8904
 0.90000    1.69     1.69   0.77094  -10.8884
 0.85000    1.69     1.69   0.76679  -10.8854
 0.80000    1.69     1.69   0.76598  -10.8816
 0.75000    1.69     1.69   0.77645  -10.8777
 0.70000    1.69     1.69   0.78630  -10.8774
 0.65000    1.69     1.69   0.79205  -10.8776
 0.60000    1.69     1.69   0.79490  -10.8775
 0.55000    1.69     1.69   0.79777  -10.8779
 0.50000    1.69     1.69   0.79907  -10.8782
 0.45000    1.69     1.69   0.80030  -10.8781
 0.40000    1.69     1.69   0.80202  -10.8781
 0.35000    1.69     1.69   0.80262  -10.8779
 0.30000    1.69     1.69   0.80329  -10.8778
 0.25000    1.69     1.69   0.80316  -10.8777
 0.20000    1.69     1.69   0.80362  -10.8774
 0.15000    1.69     1.69   0.80370  -10.8776
 0.10000    1.69     1.69   0.80317  -10.8775
 0.05000    1.69     1.69   0.80180  -10.8780
 -0.00000    1.69     1.69   0.80073  -10.8778
