 Field[T] Tsmpl[K] Tcntr[K] Signal   Mirror[MM]
 0.00000    1.73     1.73   0.42316  -10.9649
 0.05000    1.73     1.73   0.42203  -10.9639
 0.10000    1.73     1.73   0.42285  -10.9649
 0.15000    1.73     1.73   0.42280  -10.9650
 0.20000    1.73     1.73   0.42257  -10.9649
 0.25000    1.73     1.73   0.42210  -10.9650
 0.30000    1.73     1.73   0.42108  -10.9643
 0.35000    1.73     1.73   0.42101  -10.9646
 0.40000    1.73     1.73   0.42083  -10.9648
 0.45000    1.73     1.73   0.42003  -10.9647
 0.50000    1.73     1.73   0.41829  -10.9645
 0.55000    1.73     1.73   0.41613  -10.9643
 0.60000    1.73     1.73   0.41441  -10.9638
 0.65000    1.73     1.73   0.41568  -10.9641
 0.70000    1.73     1.73   0.41658  -10.9640
 0.75000    1.73     1.73   0.41773  -10.9636
 0.80000    1.73     1.73   0.41808  -10.9635
 0.85000    1.73     1.73   0.41752  -10.9624
 0.90000    1.73     1.73   0.41473  -10.9613
 0.95000    1.73     1.73   0.40970  -10.9617
 1.00000    1.73     1.73   0.40652  -10.9632
 1.05000    1.73     1.73   0.40454  -10.9648
 1.10000    1.73     1.73   0.40358  -10.9659
 1.15000    1.73     1.73   0.40323  -10.9672
 1.20000    1.73     1.73   0.40345  -10.9679
 1.25000    1.73     1.73   0.40357  -10.9692
 1.30000    1.73     1.73   0.40413  -10.9698
 1.35000    1.73     1.73   0.40508  -10.9704
 1.40000    1.73     1.73   0.40636  -10.9709
 1.45000    1.73     1.73   0.40719  -10.9711
 1.50000    1.73     1.73   0.40778  -10.9714
 1.55000    1.73     1.73   0.40822  -10.9712
 1.60000    1.73     1.73   0.40864  -10.9710
 1.65000    1.73     1.73   0.40910  -10.9709
 1.70000    1.73     1.73   0.40802  -10.9707
 1.75000    1.73     1.73   0.40841  -10.9708
 1.80000    1.73     1.73   0.40893  -10.9706
 1.85000    1.73     1.73   0.40907  -10.9707
 1.90000    1.73     1.73   0.40909  -10.9706
 1.95000    1.73     1.73   0.40895  -10.9704
 2.00000    1.73     1.73   0.40881  -10.9704
 2.05000    1.73     1.73   0.40926  -10.9703
 2.10000    1.73     1.73   0.40925  -10.9705
 2.15000    1.73     1.73   0.41000  -10.9707
 2.20000    1.73     1.73   0.41017  -10.9706
 2.25000    1.73     1.73   0.41072  -10.9708
 2.30000    1.73     1.73   0.41032  -10.9706
 2.35000    1.73     1.73   0.41065  -10.9708
 2.40000    1.73     1.73   0.41055  -10.9707
 2.45000    1.73     1.73   0.41079  -10.9708
 2.50000    1.73     1.73   0.41066  -10.9706
 2.55000    1.73     1.73   0.41069  -10.9708
 2.60000    1.73     1.73   0.41101  -10.9710
 2.65000    1.73     1.73   0.41118  -10.9707
 2.70000    1.73     1.73   0.41145  -10.9707
 2.75000    1.73     1.73   0.41136  -10.9707
 2.80000    1.73     1.73   0.41187  -10.9707
 2.85000    1.73     1.73   0.41209  -10.9704
 2.90000    1.73     1.73   0.41220  -10.9704
 2.95000    1.73     1.73   0.41219  -10.9703
 3.00000    1.73     1.73   0.41216  -10.9702
 3.05000    1.73     1.73   0.41229  -10.9706
 3.10000    1.73     1.73   0.41224  -10.9706
 3.15000    1.73     1.73   0.41217  -10.9705
 3.20000    1.73     1.73   0.41237  -10.9701
 3.25000    1.73     1.73   0.41279  -10.9702
 3.30000    1.73     1.73   0.41287  -10.9704
 3.35000    1.73     1.73   0.41280  -10.9702
 3.40000    1.73     1.73   0.41278  -10.9703
 3.45000    1.73     1.73   0.41278  -10.9702
 3.50000    1.73     1.73   0.41281  -10.9700
 3.55000    1.73     1.73   0.41280  -10.9700
 3.60000    1.73     1.73   0.41306  -10.9702
 3.65000    1.73     1.73   0.41326  -10.9702
 3.70000    1.73     1.73   0.41288  -10.9701
 3.75000    1.73     1.73   0.41291  -10.9699
 3.80000    1.73     1.73   0.41309  -10.9699
 3.85000    1.73     1.73   0.41331  -10.9699
 3.90000    1.73     1.73   0.41360  -10.9702
 3.95000    1.73     1.73   0.41354  -10.9700
 4.00000    1.73     1.73   0.41326  -10.9700
 4.00000    1.73     1.73   0.41346  -10.9698
 3.95000    1.73     1.73   0.41380  -10.9700
 3.90000    1.73     1.73   0.41332  -10.9701
 3.85000    1.73     1.73   0.41325  -10.9699
 3.80000    1.73     1.73   0.41354  -10.9698
 3.75000    1.73     1.73   0.41378  -10.9699
 3.70000    1.73     1.73   0.41391  -10.9700
 3.65000    1.73     1.73   0.41393  -10.9697
 3.60000    1.73     1.73   0.41432  -10.9695
 3.55000    1.73     1.73   0.41445  -10.9699
 3.50000    1.73     1.73   0.41438  -10.9700
 3.45000    1.73     1.73   0.41444  -10.9701
 3.40000    1.73     1.73   0.41449  -10.9700
 3.35000    1.73     1.73   0.41467  -10.9698
 3.30000    1.73     1.73   0.41469  -10.9700
 3.25000    1.73     1.73   0.41430  -10.9700
 3.20000    1.73     1.73   0.41444  -10.9702
 3.15000    1.73     1.73   0.41459  -10.9701
 3.10000    1.73     1.73   0.41446  -10.9699
 3.05000    1.73     1.73   0.41449  -10.9700
 3.00000    1.73     1.73   0.41414  -10.9698
 2.95000    1.73     1.73   0.41420  -10.9697
 2.90000    1.73     1.73   0.41441  -10.9697
 2.85000    1.73     1.73   0.41429  -10.9697
 2.80000    1.73     1.73   0.41447  -10.9696
 2.75000    1.73     1.73   0.41490  -10.9699
 2.70000    1.73     1.73   0.41464  -10.9696
 2.65000    1.73     1.73   0.41454  -10.9698
 2.60000    1.73     1.73   0.41451  -10.9698
 2.55000    1.73     1.73   0.41493  -10.9701
 2.50000    1.73     1.73   0.41497  -10.9701
 2.45000    1.73     1.73   0.41445  -10.9698
 2.40000    1.73     1.73   0.41446  -10.9699
 2.35000    1.73     1.73   0.41446  -10.9700
 2.30000    1.73     1.73   0.41428  -10.9698
 2.25000    1.73     1.73   0.41411  -10.9700
 2.20000    1.73     1.73   0.41378  -10.9697
 2.15000    1.73     1.73   0.41400  -10.9698
 2.10000    1.73     1.73   0.41380  -10.9698
 2.05000    1.73     1.73   0.41351  -10.9697
 2.00000    1.73     1.73   0.41299  -10.9698
 1.95000    1.73     1.73   0.41296  -10.9695
 1.90000    1.73     1.73   0.41261  -10.9695
 1.85000    1.73     1.73   0.41225  -10.9698
 1.80000    1.73     1.73   0.41207  -10.9697
 1.75000    1.73     1.73   0.41180  -10.9694
 1.70000    1.73     1.73   0.41143  -10.9694
 1.65000    1.73     1.73   0.41117  -10.9696
 1.60000    1.73     1.73   0.41043  -10.9695
 1.55000    1.73     1.73   0.41002  -10.9695
 1.50000    1.73     1.73   0.40929  -10.9691
 1.45000    1.73     1.73   0.40829  -10.9695
 1.40000    1.73     1.73   0.40724  -10.9693
 1.35000    1.73     1.73   0.40589  -10.9686
 1.30000    1.73     1.73   0.40463  -10.9681
 1.25000    1.73     1.73   0.40371  -10.9670
 1.20000    1.73     1.73   0.40284  -10.9662
 1.15000    1.73     1.73   0.40250  -10.9647
 1.10000    1.73     1.73   0.40240  -10.9634
 1.05000    1.73     1.73   0.40274  -10.9622
 1.00000    1.73     1.73   0.40410  -10.9609
 0.95000    1.73     1.73   0.40686  -10.9595
 0.90000    1.73     1.73   0.41152  -10.9589
 0.85000    1.73     1.73   0.41468  -10.9604
 0.80000    1.73     1.73   0.41561  -10.9612
 0.75000    1.73     1.73   0.41647  -10.9617
 0.70000    1.73     1.73   0.41650  -10.9620
 0.65000    1.73     1.73   0.41661  -10.9621
 0.60000    1.73     1.73   0.41673  -10.9624
 0.55000    1.73     1.73   0.41704  -10.9621
 0.50000    1.73     1.73   0.41684  -10.9625
 0.45000    1.73     1.73   0.41688  -10.9626
 0.40000    1.73     1.73   0.41722  -10.9627
 0.35000    1.73     1.73   0.41740  -10.9626
 0.30000    1.73     1.73   0.41763  -10.9626
 0.25000    1.73     1.73   0.41761  -10.9626
 0.20000    1.73     1.73   0.41748  -10.9627
 0.15000    1.73     1.73   0.41744  -10.9626
 0.10000    1.73     1.73   0.41759  -10.9625
 0.05000    1.73     1.73   0.41751  -10.9622
 -0.00000    1.73     1.73   0.41735  -10.9625
