 Field[T] Tsmpl[K] Tcntr[K] Signal   Mirror[MM]
 0.00000    1.78     1.78   0.39482  -10.9508
 0.05000    1.78     1.78   0.39426  -10.9504
 0.10000    1.78     1.78   0.39454  -10.9507
 0.15000    1.78     1.78   0.39451  -10.9503
 0.20000    1.78     1.78   0.39454  -10.9505
 0.25000    1.78     1.78   0.39454  -10.9507
 0.30000    1.78     1.78   0.39479  -10.9510
 0.35000    1.78     1.78   0.39462  -10.9509
 0.40000    1.78     1.78   0.39443  -10.9507
 0.45000    1.78     1.78   0.39462  -10.9509
 0.50000    1.78     1.78   0.39465  -10.9508
 0.55000    1.78     1.78   0.39454  -10.9511
 0.60000    1.78     1.78   0.39435  -10.9508
 0.65000    1.78     1.78   0.39479  -10.9508
 0.70000    1.78     1.78   0.39429  -10.9511
 0.75000    1.78     1.78   0.39418  -10.9507
 0.80000    1.78     1.78   0.39468  -10.9509
 0.85000    1.78     1.78   0.39471  -10.9509
 0.90000    1.78     1.78   0.39432  -10.9511
 0.95000    1.78     1.78   0.39438  -10.9507
 1.00000    1.78     1.78   0.39421  -10.9508
 1.05000    1.78     1.78   0.39407  -10.9508
 1.10000    1.78     1.78   0.39396  -10.9507
 1.15000    1.78     1.78   0.39407  -10.9508
 1.20000    1.78     1.78   0.39399  -10.9508
 1.25000    1.78     1.78   0.39360  -10.9507
 1.30000    1.78     1.78   0.39360  -10.9508
 1.35000    1.78     1.78   0.39335  -10.9509
 1.40000    1.78     1.78   0.39296  -10.9506
 1.45000    1.78     1.78   0.39233  -10.9503
 1.50000    1.78     1.78   0.39078  -10.9500
 1.55000    1.78     1.78   0.38835  -10.9499
 1.60000    1.78     1.78   0.38641  -10.9502
 1.65000    1.78     1.78   0.38530  -10.9504
 1.70000    1.78     1.78   0.38481  -10.9509
 1.75000    1.78     1.78   0.38450  -10.9517
 1.80000    1.78     1.78   0.38483  -10.9521
 1.85000    1.78     1.78   0.38553  -10.9523
 1.90000    1.78     1.78   0.38588  -10.9524
 1.95000    1.78     1.78   0.38669  -10.9528
 2.00000    1.78     1.78   0.38760  -10.9531
 2.05000    1.78     1.78   0.38826  -10.9531
 2.10000    1.78     1.78   0.38860  -10.9529
 2.15000    1.78     1.78   0.38956  -10.9531
 2.20000    1.78     1.78   0.39034  -10.9532
 2.25000    1.78     1.78   0.39045  -10.9532
 2.30000    1.78     1.78   0.39056  -10.9532
 2.35000    1.78     1.78   0.39155  -10.9533
 2.40000    1.78     1.78   0.39150  -10.9532
 2.45000    1.78     1.78   0.39172  -10.9533
 2.50000    1.78     1.78   0.39216  -10.9535
 2.55000    1.78     1.78   0.39252  -10.9533
 2.60000    1.78     1.78   0.39238  -10.9533
 2.65000    1.78     1.78   0.39241  -10.9531
 2.70000    1.78     1.78   0.39283  -10.9530
 2.75000    1.78     1.78   0.39272  -10.9529
 2.80000    1.78     1.78   0.39291  -10.9530
 2.85000    1.78     1.78   0.39341  -10.9532
 2.90000    1.78     1.78   0.39355  -10.9531
 2.95000    1.78     1.78   0.39343  -10.9530
 3.00000    1.78     1.78   0.39363  -10.9529
 3.05000    1.78     1.78   0.39382  -10.9527
 3.10000    1.78     1.78   0.39355  -10.9528
 3.15000    1.78     1.78   0.39352  -10.9529
 3.20000    1.78     1.78   0.39388  -10.9531
 3.25000    1.78     1.78   0.39418  -10.9530
 3.30000    1.78     1.78   0.39390  -10.9527
 3.35000    1.78     1.78   0.39413  -10.9528
 3.40000    1.78     1.78   0.39443  -10.9528
 3.45000    1.78     1.78   0.39418  -10.9528
 3.50000    1.78     1.78   0.39449  -10.9529
 3.55000    1.78     1.78   0.39462  -10.9529
 3.60000    1.78     1.78   0.39471  -10.9530
 3.65000    1.78     1.78   0.39449  -10.9528
 3.70000    1.78     1.78   0.39496  -10.9526
 3.75000    1.78     1.78   0.39501  -10.9526
 3.80000    1.78     1.78   0.39482  -10.9527
 3.85000    1.78     1.78   0.39482  -10.9528
 3.90000    1.78     1.78   0.39507  -10.9529
 3.95000    1.78     1.78   0.39471  -10.9526
 4.00000    1.78     1.78   0.39460  -10.9529
 4.00000    1.78     1.78   0.39485  -10.9528
 3.95000    1.78     1.78   0.39496  -10.9528
 3.90000    1.78     1.78   0.39487  -10.9528
 3.85000    1.78     1.78   0.39501  -10.9529
 3.80000    1.78     1.78   0.39496  -10.9527
 3.75000    1.78     1.78   0.39468  -10.9529
 3.70000    1.78     1.78   0.39465  -10.9526
 3.65000    1.78     1.78   0.39468  -10.9525
 3.60000    1.78     1.78   0.39468  -10.9525
 3.55000    1.78     1.78   0.39443  -10.9526
 3.50000    1.78     1.78   0.39465  -10.9527
 3.45000    1.78     1.78   0.39479  -10.9530
 3.40000    1.78     1.78   0.39418  -10.9527
 3.35000    1.78     1.78   0.39424  -10.9527
 3.30000    1.78     1.78   0.39440  -10.9527
 3.25000    1.78     1.78   0.39404  -10.9527
 3.20000    1.78     1.78   0.39390  -10.9525
 3.15000    1.78     1.78   0.39413  -10.9527
 3.10000    1.78     1.78   0.39385  -10.9525
 3.05000    1.78     1.78   0.39360  -10.9527
 3.00000    1.78     1.78   0.39357  -10.9527
 2.95000    1.78     1.78   0.39366  -10.9526
 2.90000    1.78     1.78   0.39335  -10.9525
 2.85000    1.78     1.78   0.39296  -10.9525
 2.80000    1.78     1.78   0.39308  -10.9525
 2.75000    1.78     1.78   0.39274  -10.9526
 2.70000    1.78     1.78   0.39249  -10.9527
 2.65000    1.78     1.78   0.39236  -10.9526
 2.60000    1.78     1.78   0.39233  -10.9525
 2.55000    1.78     1.78   0.39172  -10.9527
 2.50000    1.78     1.78   0.39144  -10.9527
 2.45000    1.78     1.78   0.39131  -10.9525
 2.40000    1.78     1.78   0.39100  -10.9526
 2.35000    1.78     1.78   0.39045  -10.9528
 2.30000    1.78     1.78   0.39028  -10.9527
 2.25000    1.78     1.78   0.38998  -10.9525
 2.20000    1.78     1.78   0.38934  -10.9528
 2.15000    1.78     1.78   0.38868  -10.9524
 2.10000    1.78     1.78   0.38840  -10.9525
 2.05000    1.78     1.78   0.38735  -10.9525
 2.00000    1.78     1.78   0.38627  -10.9523
 1.95000    1.78     1.78   0.38588  -10.9520
 1.90000    1.78     1.78   0.38522  -10.9519
 1.85000    1.78     1.78   0.38395  -10.9515
 1.80000    1.78     1.78   0.38353  -10.9512
 1.75000    1.78     1.78   0.38340  -10.9505
 1.70000    1.78     1.78   0.38340  -10.9502
 1.65000    1.78     1.78   0.38389  -10.9496
 1.60000    1.78     1.78   0.38511  -10.9493
 1.55000    1.78     1.78   0.38671  -10.9490
 1.50000    1.78     1.78   0.38915  -10.9489
 1.45000    1.78     1.78   0.39103  -10.9494
 1.40000    1.78     1.78   0.39166  -10.9496
 1.35000    1.78     1.78   0.39178  -10.9497
 1.30000    1.78     1.78   0.39200  -10.9498
 1.25000    1.78     1.78   0.39269  -10.9497
 1.20000    1.78     1.78   0.39258  -10.9499
 1.15000    1.78     1.78   0.39233  -10.9498
 1.10000    1.78     1.78   0.39269  -10.9500
 1.05000    1.78     1.78   0.39255  -10.9500
 1.00000    1.78     1.78   0.39241  -10.9499
 0.95000    1.78     1.78   0.39230  -10.9499
 0.90000    1.78     1.78   0.39252  -10.9501
 0.85000    1.78     1.78   0.39227  -10.9500
 0.80000    1.78     1.78   0.39211  -10.9501
 0.75000    1.78     1.78   0.39247  -10.9501
 0.70000    1.78     1.78   0.39252  -10.9500
 0.65000    1.78     1.78   0.39208  -10.9500
 0.60000    1.78     1.78   0.39211  -10.9496
 0.55000    1.78     1.78   0.39211  -10.9497
 0.50000    1.78     1.78   0.39172  -10.9497
 0.45000    1.78     1.78   0.39161  -10.9498
 0.40000    1.78     1.78   0.39180  -10.9496
 0.35000    1.78     1.78   0.39178  -10.9496
 0.30000    1.78     1.78   0.39153  -10.9497
 0.25000    1.78     1.78   0.39186  -10.9494
 0.20000    1.78     1.78   0.39175  -10.9493
 0.15000    1.78     1.78   0.39153  -10.9493
 0.10000    1.78     1.78   0.39139  -10.9496
 0.05000    1.78     1.78   0.39169  -10.9496
 -0.00000    1.78     1.78   0.39133  -10.9494
