 Field[T] Tsmpl[K] Tcntr[K] Signal   Mirror[MM]
 0.00000    1.79     1.79   0.21522  -10.9463
 0.05000    1.79     1.79   0.21508  -10.9463
 0.10000    1.79     1.79   0.21507  -10.9462
 0.15000    1.79     1.79   0.21516  -10.9464
 0.20000    1.79     1.79   0.21499  -10.9465
 0.25000    1.79     1.79   0.21484  -10.9466
 0.30000    1.79     1.79   0.21488  -10.9467
 0.35000    1.79     1.79   0.21496  -10.9466
 0.40000    1.79     1.79   0.21465  -10.9467
 0.45000    1.79     1.79   0.21457  -10.9469
 0.50000    1.79     1.79   0.21467  -10.9468
 0.55000    1.79     1.79   0.21448  -10.9469
 0.60000    1.79     1.79   0.21426  -10.9468
 0.65000    1.79     1.79   0.21415  -10.9468
 0.70000    1.79     1.79   0.21409  -10.9466
 0.75000    1.79     1.79   0.21362  -10.9465
 0.80000    1.79     1.79   0.21320  -10.9466
 0.85000    1.79     1.79   0.21298  -10.9463
 0.90000    1.79     1.79   0.21250  -10.9459
 0.95000    1.79     1.79   0.21138  -10.9455
 1.00000    1.79     1.79   0.20924  -10.9451
 1.05000    1.79     1.79   0.20676  -10.9462
 1.10000    1.79     1.79   0.20580  -10.9486
 1.15000    1.79     1.79   0.20553  -10.9505
 1.20000    1.79     1.79   0.20614  -10.9520
 1.25000    1.79     1.79   0.20688  -10.9532
 1.30000    1.79     1.79   0.20753  -10.9543
 1.35000    1.79     1.79   0.20850  -10.9554
 1.40000    1.79     1.79   0.20977  -10.9561
 1.45000    1.79     1.79   0.21085  -10.9564
 1.50000    1.79     1.79   0.21167  -10.9566
 1.55000    1.79     1.79   0.21269  -10.9562
 1.60000    1.79     1.79   0.21335  -10.9561
 1.65000    1.79     1.79   0.21368  -10.9559
 1.70000    1.79     1.79   0.21408  -10.9561
 1.75000    1.79     1.79   0.21458  -10.9558
 1.80000    1.79     1.79   0.21468  -10.9552
 1.85000    1.79     1.79   0.21476  -10.9553
 1.90000    1.79     1.79   0.21505  -10.9554
 1.95000    1.79     1.79   0.21537  -10.9553
 2.00000    1.79     1.79   0.21536  -10.9551
 2.05000    1.79     1.79   0.21544  -10.9548
 2.10000    1.79     1.79   0.21575  -10.9549
 2.15000    1.79     1.79   0.21577  -10.9551
 2.20000    1.79     1.79   0.21586  -10.9547
 2.25000    1.79     1.79   0.21610  -10.9547
 2.30000    1.79     1.79   0.21629  -10.9547
 2.35000    1.79     1.79   0.21619  -10.9545
 2.40000    1.79     1.79   0.21635  -10.9546
 2.45000    1.79     1.79   0.21660  -10.9546
 2.50000    1.79     1.79   0.21656  -10.9544
 2.55000    1.79     1.79   0.21657  -10.9546
 2.60000    1.79     1.79   0.21674  -10.9542
 2.65000    1.79     1.79   0.21692  -10.9541
 2.70000    1.79     1.79   0.21687  -10.9542
 2.75000    1.79     1.79   0.21688  -10.9541
 2.80000    1.79     1.79   0.21705  -10.9539
 2.85000    1.79     1.79   0.21711  -10.9539
 2.90000    1.79     1.79   0.21708  -10.9538
 2.95000    1.79     1.79   0.21717  -10.9538
 3.00000    1.79     1.79   0.21737  -10.9536
 3.05000    1.79     1.79   0.21713  -10.9535
 3.10000    1.79     1.79   0.21720  -10.9534
 3.15000    1.79     1.79   0.21743  -10.9534
 3.20000    1.79     1.79   0.21743  -10.9535
 3.25000    1.79     1.79   0.21731  -10.9534
 3.30000    1.79     1.79   0.21738  -10.9533
 3.35000    1.79     1.79   0.21753  -10.9533
 3.40000    1.79     1.79   0.21738  -10.9531
 3.45000    1.79     1.79   0.21747  -10.9532
 3.50000    1.79     1.79   0.21770  -10.9531
 3.55000    1.79     1.79   0.21760  -10.9530
 3.60000    1.79     1.79   0.21746  -10.9531
 3.65000    1.79     1.79   0.21757  -10.9529
 3.70000    1.79     1.79   0.21779  -10.9528
 3.75000    1.79     1.79   0.21765  -10.9530
 3.80000    1.79     1.79   0.21763  -10.9528
 3.85000    1.79     1.79   0.21785  -10.9530
 3.90000    1.79     1.79   0.21784  -10.9527
 3.95000    1.79     1.79   0.21774  -10.9527
 4.00000    1.79     1.79   0.21787  -10.9526
 4.00000    1.79     1.79   0.21794  -10.9526
 3.95000    1.79     1.79   0.21798  -10.9527
 3.90000    1.79     1.79   0.21788  -10.9526
 3.85000    1.79     1.79   0.21801  -10.9526
 3.80000    1.79     1.79   0.21808  -10.9527
 3.75000    1.79     1.79   0.21792  -10.9526
 3.70000    1.79     1.79   0.21797  -10.9525
 3.65000    1.79     1.79   0.21808  -10.9527
 3.60000    1.79     1.79   0.21805  -10.9525
 3.55000    1.79     1.79   0.21798  -10.9526
 3.50000    1.79     1.79   0.21806  -10.9526
 3.45000    1.79     1.79   0.21818  -10.9527
 3.40000    1.79     1.79   0.21805  -10.9528
 3.35000    1.79     1.79   0.21796  -10.9526
 3.30000    1.79     1.79   0.21812  -10.9526
 3.25000    1.79     1.79   0.21808  -10.9525
 3.20000    1.79     1.79   0.21803  -10.9525
 3.15000    1.79     1.79   0.21806  -10.9526
 3.10000    1.79     1.79   0.21823  -10.9527
 3.05000    1.79     1.79   0.21807  -10.9526
 3.00000    1.79     1.79   0.21794  -10.9527
 2.95000    1.79     1.79   0.21806  -10.9528
 2.90000    1.79     1.79   0.21812  -10.9529
 2.85000    1.79     1.79   0.21791  -10.9526
 2.80000    1.79     1.79   0.21783  -10.9529
 2.75000    1.79     1.79   0.21806  -10.9528
 2.70000    1.79     1.79   0.21784  -10.9528
 2.65000    1.79     1.79   0.21767  -10.9530
 2.60000    1.79     1.79   0.21779  -10.9529
 2.55000    1.79     1.79   0.21772  -10.9530
 2.50000    1.79     1.79   0.21745  -10.9529
 2.45000    1.79     1.79   0.21743  -10.9532
 2.40000    1.79     1.79   0.21746  -10.9531
 2.35000    1.79     1.79   0.21732  -10.9529
 2.30000    1.79     1.79   0.21712  -10.9530
 2.25000    1.79     1.79   0.21711  -10.9534
 2.20000    1.79     1.79   0.21710  -10.9532
 2.15000    1.79     1.79   0.21680  -10.9533
 2.10000    1.79     1.79   0.21672  -10.9533
 2.05000    1.79     1.79   0.21673  -10.9535
 2.00000    1.79     1.79   0.21652  -10.9532
 1.95000    1.79     1.79   0.21620  -10.9531
 1.90000    1.79     1.79   0.21613  -10.9537
 1.85000    1.79     1.79   0.21602  -10.9536
 1.80000    1.79     1.79   0.21571  -10.9536
 1.75000    1.79     1.79   0.21537  -10.9535
 1.70000    1.79     1.79   0.21521  -10.9537
 1.65000    1.79     1.79   0.21487  -10.9540
 1.60000    1.79     1.79   0.21425  -10.9543
 1.55000    1.79     1.79   0.21369  -10.9543
 1.50000    1.79     1.79   0.21295  -10.9544
 1.45000    1.79     1.79   0.21185  -10.9544
 1.40000    1.79     1.79   0.21056  -10.9543
 1.35000    1.79     1.79   0.20956  -10.9539
 1.30000    1.79     1.79   0.20866  -10.9527
 1.25000    1.79     1.79   0.20760  -10.9515
 1.20000    1.79     1.79   0.20687  -10.9504
 1.15000    1.79     1.79   0.20653  -10.9488
 1.10000    1.79     1.79   0.20644  -10.9469
 1.05000    1.79     1.79   0.20716  -10.9446
 1.00000    1.79     1.79   0.20970  -10.9429
 0.95000    1.79     1.79   0.21210  -10.9435
 0.90000    1.79     1.79   0.21290  -10.9442
 0.85000    1.79     1.79   0.21355  -10.9447
 0.80000    1.79     1.79   0.21410  -10.9448
 0.75000    1.79     1.79   0.21424  -10.9451
 0.70000    1.79     1.79   0.21438  -10.9451
 0.65000    1.79     1.79   0.21470  -10.9453
 0.60000    1.79     1.79   0.21485  -10.9452
 0.55000    1.79     1.79   0.21469  -10.9453
 0.50000    1.79     1.79   0.21488  -10.9455
 0.45000    1.79     1.79   0.21517  -10.9453
 0.40000    1.79     1.79   0.21514  -10.9452
 0.35000    1.79     1.79   0.21498  -10.9452
 0.30000    1.79     1.79   0.21517  -10.9449
 0.25000    1.79     1.79   0.21518  -10.9452
 0.20000    1.79     1.79   0.21510  -10.9451
 0.15000    1.79     1.79   0.21508  -10.9447
 0.10000    1.79     1.79   0.21527  -10.9451
 0.05000    1.79     1.79   0.21517  -10.9450
 -0.00000    1.79     1.79   0.21507  -10.9451
