 Field[T] Tsmpl[K] Tcntr[K] Signal   Mirror[MM]
 0.00000    1.73     1.73   0.82051  -11.0378
 0.05000    1.73     1.73   0.83020  -11.0529
 0.10000    1.73     1.73   0.85230  -11.0463
 0.15000    1.73     1.73   0.87188  -11.0323
 0.20000    1.73     1.73   0.89003  -11.0270
 0.25000    1.73     1.73   0.90666  -11.0160
 0.30000    1.73     1.73   0.92275  -11.0037
 0.35000    1.73     1.73   0.93978  -10.9890
 0.40000    1.73     1.73   0.94774  -10.9705
 0.45000    1.73     1.73   0.95342  -10.9502
 0.50000    1.73     1.73   0.95436  -10.9316
 0.55000    1.73     1.73   0.95148  -10.9187
 0.60000    1.73     1.73   0.94921  -10.9085
 0.65000    1.73     1.73   0.94691  -10.8986
 0.70000    1.73     1.73   0.94496  -10.8917
 0.75000    1.73     1.73   0.94536  -10.8851
 0.80000    1.73     1.73   0.94136  -10.8786
 0.85000    1.73     1.73   0.94090  -10.8727
 0.90000    1.73     1.73   0.93809  -10.8670
 0.95000    1.73     1.73   0.93463  -10.8623
 1.00000    1.73     1.73   0.92974  -10.8584
 1.05000    1.73     1.73   0.92588  -10.8535
 1.10000    1.73     1.73   0.92588  -10.8513
 1.15000    1.73     1.73   0.92138  -10.8484
 1.20000    1.73     1.73   0.92074  -10.8452
 1.25000    1.73     1.73   0.91645  -10.8448
 1.30000    1.73     1.73   0.91555  -10.8424
 1.35000    1.73     1.73   0.91310  -10.8407
 1.40000    1.73     1.73   0.91152  -10.8387
 1.45000    1.73     1.73   0.90983  -10.8395
 1.50000    1.73     1.73   0.90742  -10.8377
 1.55000    1.73     1.73   0.90644  -10.8360
 1.60000    1.73     1.73   0.90634  -10.8385
 1.65000    1.73     1.73   0.90486  -10.8336
 1.70000    1.73     1.73   0.90288  -10.8343
 1.75000    1.73     1.73   0.90137  -10.8353
 1.80000    1.73     1.73   0.90061  -10.8352
 1.85000    1.73     1.73   0.90126  -10.8353
 1.90000    1.73     1.73   0.89960  -10.8347
 1.95000    1.73     1.73   0.89993  -10.8341
 2.00000    1.73     1.73   0.89932  -10.8336
 2.05000    1.73     1.73   0.89694  -10.8326
 2.10000    1.73     1.73   0.89708  -10.8331
 2.15000    1.73     1.73   0.89629  -10.8334
 2.20000    1.73     1.73   0.89608  -10.8329
 2.25000    1.73     1.73   0.89284  -10.8330
 2.30000    1.73     1.73   0.89586  -10.8320
 2.35000    1.73     1.73   0.89528  -10.8333
 2.40000    1.73     1.73   0.89449  -10.8322
 2.45000    1.73     1.73   0.89600  -10.8323
 2.50000    1.73     1.73   0.89683  -10.8309
 2.55000    1.73     1.73   0.89712  -10.8313
 2.60000    1.73     1.73   0.89449  -10.8305
 2.65000    1.73     1.73   0.89492  -10.8308
 2.70000    1.73     1.73   0.89338  -10.8311
 2.75000    1.73     1.73   0.89240  -10.8358
 2.80000    1.73     1.73   0.89449  -10.8297
 2.85000    1.73     1.73   0.89280  -10.8280
 2.90000    1.73     1.73   0.89453  -10.8294
 2.95000    1.73     1.73   0.89438  -10.8301
 3.00000    1.73     1.73   0.89460  -10.8307
 3.05000    1.73     1.73   0.89323  -10.8296
 3.10000    1.73     1.73   0.89240  -10.8293
 3.15000    1.73     1.73   0.89003  -10.8322
 3.20000    1.73     1.73   0.89244  -10.8283
 3.25000    1.73     1.73   0.89334  -10.8281
 3.30000    1.73     1.73   0.89399  -10.8267
 3.35000    1.73     1.73   0.89244  -10.8272
 3.40000    1.73     1.73   0.89388  -10.8284
 3.45000    1.73     1.73   0.89168  -10.8282
 3.50000    1.73     1.73   0.89024  -10.8273
 3.55000    1.73     1.73   0.88884  -10.8266
 3.60000    1.73     1.73   0.89064  -10.8267
 3.65000    1.73     1.73   0.88945  -10.8250
 3.70000    1.73     1.73   0.88866  -10.8244
 3.75000    1.73     1.73   0.88873  -10.8243
 3.80000    1.73     1.73   0.88866  -10.8254
 3.85000    1.73     1.73   0.89014  -10.8248
 3.90000    1.73     1.73   0.88898  -10.8252
 3.95000    1.73     1.73   0.88974  -10.8242
 4.00000    1.73     1.73   0.88772  -10.8240
 4.00000    1.73     1.73   0.88956  -10.8246
 3.95000    1.73     1.73   0.89089  -10.8237
 3.90000    1.73     1.73   0.89068  -10.8231
 3.85000    1.73     1.73   0.88848  -10.8233
 3.80000    1.73     1.73   0.88877  -10.8219
 3.75000    1.73     1.73   0.88960  -10.8231
 3.70000    1.73     1.73   0.88693  -10.8222
 3.65000    1.73     1.73   0.88643  -10.8221
 3.60000    1.73     1.73   0.88733  -10.8227
 3.55000    1.73     1.73   0.88816  -10.8228
 3.50000    1.73     1.73   0.88754  -10.8229
 3.45000    1.73     1.73   0.88589  -10.8282
 3.40000    1.73     1.73   0.88632  -10.8187
 3.35000    1.73     1.73   0.88830  -10.8172
 3.30000    1.73     1.73   0.89456  -10.8209
 3.25000    1.73     1.73   0.89672  -10.8225
 3.20000    1.73     1.73   0.89568  -10.8233
 3.15000    1.73     1.73   0.89712  -10.8229
 3.10000    1.73     1.73   0.89698  -10.8238
 3.05000    1.73     1.73   0.89752  -10.8240
 3.00000    1.73     1.73   0.89662  -10.8240
 2.95000    1.73     1.73   0.89712  -10.8233
 2.90000    1.73     1.73   0.89806  -10.8241
 2.85000    1.73     1.73   0.89766  -10.8249
 2.80000    1.73     1.73   0.89608  -10.8241
 2.75000    1.73     1.73   0.89399  -10.8235
 2.70000    1.73     1.73   0.90040  -10.8211
 2.65000    1.73     1.73   0.90079  -10.8228
 2.60000    1.73     1.73   0.90338  -10.8244
 2.55000    1.73     1.73   0.90428  -10.8246
 2.50000    1.73     1.73   0.90068  -10.8270
 2.45000    1.73     1.73   0.89870  -10.8273
 2.40000    1.73     1.73   0.90011  -10.8283
 2.35000    1.73     1.73   0.90220  -10.8279
 2.30000    1.73     1.73   0.89737  -10.8284
 2.25000    1.73     1.73   0.89683  -10.8281
 2.20000    1.73     1.73   0.89478  -10.8312
 2.15000    1.73     1.73   0.90068  -10.8350
 2.10000    1.73     1.73   0.90360  -10.8365
 2.05000    1.73     1.73   0.90439  -10.8326
 2.00000    1.73     1.73   0.90176  -10.8294
 1.95000    1.73     1.73   0.90576  -10.8324
 1.90000    1.73     1.73   0.90907  -10.8355
 1.85000    1.73     1.73   0.91066  -10.8369
 1.80000    1.73     1.73   0.90864  -10.8364
 1.75000    1.73     1.73   0.90774  -10.8372
 1.70000    1.73     1.73   0.91199  -10.8358
 1.65000    1.73     1.73   0.91573  -10.8361
 1.60000    1.73     1.73   0.91804  -10.8366
 1.55000    1.73     1.73   0.91732  -10.8367
 1.50000    1.73     1.73   0.91894  -10.8379
 1.45000    1.73     1.73   0.92279  -10.8391
 1.40000    1.73     1.73   0.92329  -10.8392
 1.35000    1.73     1.73   0.92524  -10.8398
 1.30000    1.73     1.73   0.92779  -10.8415
 1.25000    1.73     1.73   0.92725  -10.8418
 1.20000    1.73     1.73   0.93164  -10.8434
 1.15000    1.73     1.73   0.93402  -10.8459
 1.10000    1.73     1.73   0.93618  -10.8507
 1.05000    1.73     1.73   0.93787  -10.8478
 1.00000    1.73     1.73   0.93967  -10.8481
 0.95000    1.73     1.73   0.94680  -10.8578
 0.90000    1.73     1.73   0.95044  -10.8643
 0.85000    1.73     1.73   0.95296  -10.8692
 0.80000    1.73     1.73   0.95306  -10.8762
 0.75000    1.73     1.73   0.95544  -10.8816
 0.70000    1.73     1.73   0.95623  -10.8888
 0.65000    1.73     1.73   0.95890  -10.8979
 0.60000    1.73     1.73   0.96181  -10.9060
 0.55000    1.73     1.73   0.96458  -10.9158
 0.50000    1.73     1.73   0.96779  -10.9296
 0.45000    1.73     1.73   0.96746  -10.9484
 0.40000    1.73     1.73   0.96192  -10.9685
 0.35000    1.73     1.73   0.95188  -10.9866
 0.30000    1.73     1.73   0.93791  -11.0032
 0.25000    1.73     1.73   0.92074  -11.0187
 0.20000    1.73     1.73   0.90119  -11.0324
 0.15000    1.73     1.73   0.87955  -11.0422
 0.10000    1.73     1.73   0.86213  -11.0502
 0.05000    1.73     1.73   0.84424  -11.0511
 -0.00000    1.73     1.73   0.82728  -11.0416
