 Field[T] Tsmpl[K] Tcntr[K] Signal   Mirror[MM]
 0.00000    1.79     1.79   0.45847  -11.1524
 0.05000    1.79     1.79   0.45847  -11.1525
 0.10000    1.79     1.79   0.45843  -11.1526
 0.15000    1.79     1.79   0.45820  -11.1526
 0.20000    1.79     1.79   0.45795  -11.1525
 0.25000    1.79     1.79   0.45840  -11.1527
 0.30000    1.79     1.79   0.45852  -11.1529
 0.35000    1.79     1.79   0.45820  -11.1529
 0.40000    1.79     1.79   0.45875  -11.1532
 0.45000    1.79     1.79   0.45843  -11.1530
 0.50000    1.79     1.79   0.45847  -11.1533
 0.55000    1.79     1.79   0.45825  -11.1532
 0.60000    1.79     1.79   0.45782  -11.1532
 0.65000    1.79     1.79   0.45735  -11.1530
 0.70000    1.79     1.79   0.45750  -11.1532
 0.75000    1.79     1.79   0.45820  -11.1530
 0.80000    1.79     1.79   0.45740  -11.1531
 0.85000    1.79     1.79   0.45708  -11.1528
 0.90000    1.79     1.79   0.45770  -11.1531
 0.95000    1.79     1.79   0.45775  -11.1532
 1.00000    1.79     1.79   0.45720  -11.1530
 1.05000    1.79     1.79   0.45637  -11.1529
 1.10000    1.79     1.79   0.45615  -11.1529
 1.15000    1.79     1.79   0.45540  -11.1524
 1.20000    1.79     1.79   0.45485  -11.1522
 1.25000    1.79     1.79   0.45435  -11.1520
 1.30000    1.79     1.79   0.45230  -11.1512
 1.35000    1.79     1.79   0.44790  -11.1512
 1.40000    1.79     1.79   0.44550  -11.1520
 1.45000    1.79     1.79   0.44400  -11.1531
 1.50000    1.79     1.79   0.44350  -11.1540
 1.55000    1.79     1.79   0.44360  -11.1550
 1.60000    1.79     1.79   0.44378  -11.1557
 1.65000    1.79     1.79   0.44432  -11.1564
 1.70000    1.79     1.79   0.44498  -11.1568
 1.75000    1.79     1.79   0.44683  -11.1576
 1.80000    1.79     1.79   0.44818  -11.1578
 1.85000    1.79     1.79   0.44990  -11.1579
 1.90000    1.79     1.79   0.45120  -11.1577
 1.95000    1.79     1.79   0.45183  -11.1578
 2.00000    1.79     1.79   0.45245  -11.1579
 2.05000    1.79     1.79   0.45270  -11.1579
 2.10000    1.79     1.79   0.45352  -11.1578
 2.15000    1.79     1.79   0.45445  -11.1579
 2.20000    1.79     1.79   0.45435  -11.1577
 2.25000    1.79     1.79   0.45442  -11.1575
 2.30000    1.79     1.79   0.45540  -11.1574
 2.35000    1.79     1.79   0.45600  -11.1575
 2.40000    1.79     1.79   0.45608  -11.1575
 2.45000    1.79     1.79   0.45652  -11.1576
 2.50000    1.79     1.79   0.45687  -11.1577
 2.55000    1.79     1.79   0.45645  -11.1573
 2.60000    1.79     1.79   0.45635  -11.1572
 2.65000    1.79     1.79   0.45733  -11.1573
 2.70000    1.79     1.79   0.45760  -11.1574
 2.75000    1.79     1.79   0.45695  -11.1575
 2.80000    1.79     1.79   0.45720  -11.1571
 2.85000    1.79     1.79   0.45770  -11.1569
 2.90000    1.79     1.79   0.45775  -11.1569
 2.95000    1.79     1.79   0.45735  -11.1570
 3.00000    1.79     1.79   0.45838  -11.1570
 3.05000    1.79     1.79   0.45875  -11.1570
 3.10000    1.79     1.79   0.45835  -11.1571
 3.15000    1.79     1.79   0.45885  -11.1571
 3.20000    1.79     1.79   0.45878  -11.1567
 3.25000    1.79     1.79   0.45867  -11.1570
 3.30000    1.79     1.79   0.45817  -11.1568
 3.35000    1.79     1.79   0.45948  -11.1566
 3.40000    1.79     1.79   0.45957  -11.1567
 3.45000    1.79     1.79   0.45890  -11.1567
 3.50000    1.79     1.79   0.45968  -11.1565
 3.55000    1.79     1.79   0.45925  -11.1564
 3.60000    1.79     1.79   0.45910  -11.1564
 3.65000    1.79     1.79   0.45870  -11.1561
 3.70000    1.79     1.79   0.45992  -11.1564
 3.75000    1.79     1.79   0.45948  -11.1563
 3.80000    1.79     1.79   0.45988  -11.1564
 3.85000    1.79     1.79   0.45995  -11.1562
 3.90000    1.79     1.79   0.45995  -11.1563
 3.95000    1.79     1.79   0.45937  -11.1561
 4.00000    1.79     1.79   0.45983  -11.1563
 4.00000    1.79     1.79   0.46015  -11.1563
 3.95000    1.79     1.79   0.45985  -11.1562
 3.90000    1.79     1.79   0.45937  -11.1561
 3.85000    1.79     1.79   0.45937  -11.1562
 3.80000    1.79     1.79   0.46018  -11.1563
 3.75000    1.79     1.79   0.45940  -11.1561
 3.70000    1.79     1.79   0.45977  -11.1563
 3.65000    1.79     1.79   0.45992  -11.1562
 3.60000    1.79     1.79   0.45972  -11.1563
 3.55000    1.79     1.79   0.45882  -11.1561
 3.50000    1.79     1.79   0.45935  -11.1562
 3.45000    1.79     1.79   0.45917  -11.1562
 3.40000    1.79     1.79   0.45875  -11.1562
 3.35000    1.79     1.79   0.45905  -11.1563
 3.30000    1.79     1.79   0.45920  -11.1562
 3.25000    1.79     1.79   0.45865  -11.1562
 3.20000    1.79     1.79   0.45810  -11.1560
 3.15000    1.79     1.79   0.45907  -11.1564
 3.10000    1.79     1.79   0.45882  -11.1565
 3.05000    1.79     1.79   0.45777  -11.1561
 3.00000    1.79     1.79   0.45737  -11.1562
 2.95000    1.79     1.79   0.45793  -11.1563
 2.90000    1.79     1.79   0.45765  -11.1564
 2.85000    1.79     1.79   0.45713  -11.1563
 2.80000    1.79     1.79   0.45692  -11.1562
 2.75000    1.79     1.79   0.45705  -11.1563
 2.70000    1.79     1.79   0.45680  -11.1562
 2.65000    1.79     1.79   0.45690  -11.1561
 2.60000    1.79     1.79   0.45635  -11.1561
 2.55000    1.79     1.79   0.45585  -11.1561
 2.50000    1.79     1.79   0.45532  -11.1562
 2.45000    1.79     1.79   0.45500  -11.1564
 2.40000    1.79     1.79   0.45490  -11.1564
 2.35000    1.79     1.79   0.45445  -11.1564
 2.30000    1.79     1.79   0.45408  -11.1561
 2.25000    1.79     1.79   0.45425  -11.1562
 2.20000    1.79     1.79   0.45317  -11.1563
 2.15000    1.79     1.79   0.45310  -11.1564
 2.10000    1.79     1.79   0.45275  -11.1564
 2.05000    1.79     1.79   0.45198  -11.1562
 2.00000    1.79     1.79   0.45098  -11.1564
 1.95000    1.79     1.79   0.45075  -11.1565
 1.90000    1.79     1.79   0.45042  -11.1566
 1.85000    1.79     1.79   0.44885  -11.1564
 1.80000    1.79     1.79   0.44725  -11.1562
 1.75000    1.79     1.79   0.44640  -11.1561
 1.70000    1.79     1.79   0.44432  -11.1554
 1.65000    1.79     1.79   0.44215  -11.1548
 1.60000    1.79     1.79   0.44225  -11.1546
 1.55000    1.79     1.79   0.44165  -11.1533
 1.50000    1.79     1.79   0.44143  -11.1527
 1.45000    1.79     1.79   0.44175  -11.1517
 1.40000    1.79     1.79   0.44338  -11.1506
 1.35000    1.79     1.79   0.44615  -11.1500
 1.30000    1.79     1.79   0.44972  -11.1498
 1.25000    1.79     1.79   0.45125  -11.1503
 1.20000    1.79     1.79   0.45205  -11.1506
 1.15000    1.79     1.79   0.45308  -11.1511
 1.10000    1.79     1.79   0.45332  -11.1513
 1.05000    1.79     1.79   0.45378  -11.1511
 1.00000    1.79     1.79   0.45420  -11.1515
 0.95000    1.79     1.79   0.45455  -11.1518
 0.90000    1.79     1.79   0.45400  -11.1515
 0.85000    1.79     1.79   0.45422  -11.1515
 0.80000    1.79     1.79   0.45467  -11.1516
 0.75000    1.79     1.79   0.45477  -11.1515
 0.70000    1.79     1.79   0.45460  -11.1517
 0.65000    1.79     1.79   0.45520  -11.1516
 0.60000    1.79     1.79   0.45488  -11.1516
 0.55000    1.79     1.79   0.45508  -11.1515
 0.50000    1.79     1.79   0.45495  -11.1516
 0.45000    1.79     1.79   0.45508  -11.1516
 0.40000    1.79     1.79   0.45415  -11.1514
 0.35000    1.79     1.79   0.45440  -11.1514
 0.30000    1.79     1.79   0.45472  -11.1514
 0.25000    1.79     1.79   0.45450  -11.1514
 0.20000    1.79     1.79   0.45515  -11.1517
 0.15000    1.79     1.79   0.45410  -11.1513
 0.10000    1.79     1.79   0.45453  -11.1513
 0.05000    1.79     1.79   0.45428  -11.1508
 -0.00000    1.79     1.79   0.45358  -11.1510
