 Field[T] Tsmpl[K] Tcntr[K] Signal
 0.00000    1.80     1.82   5.64630
 0.05000    1.80     1.82   5.64610
 0.10000    1.80     1.82   5.64680
 0.15000    1.80     1.82   5.64920
 0.20000    1.80     1.82   5.65020
 0.25000    1.80     1.82   5.65040
 0.30000    1.80     1.82   5.65260
 0.35000    1.80     1.82   5.65170
 0.40000    1.80     1.82   5.65030
 0.45000    1.80     1.82   5.64920
 0.50000    1.80     1.82   5.64980
 0.55000    1.80     1.82   5.65290
 0.60000    1.80     1.82   5.64890
 0.65000    1.80     1.82   5.65050
 0.70000    1.80     1.82   5.64770
 0.75000    1.80     1.82   5.64540
 0.80000    1.80     1.82   5.64450
 0.85000    1.80     1.82   5.63930
 0.90000    1.80     1.82   5.63610
 0.95000    1.80     1.82   5.63550
 1.00000    1.80     1.82   5.62550
 1.05000    1.80     1.82   5.62850
 1.10000    1.80     1.82   5.62360
 1.15000    1.80     1.82   5.61920
 1.20000    1.80     1.82   5.61600
 1.25000    1.80     1.82   5.60630
 1.30000    1.80     1.82   5.60210
 1.35000    1.80     1.82   5.59630
 1.40000    1.80     1.82   5.59180
 1.45000    1.80     1.82   5.59050
 1.50000    1.80     1.82   5.58550
 1.55000    1.81     1.82   5.58210
 1.60000    1.81     1.82   5.57920
 1.65000    1.81     1.83   5.57540
 1.70000    1.81     1.83   5.57420
 1.75000    1.81     1.83   5.57460
 1.80000    1.81     1.83   5.57110
 1.85000    1.81     1.83   5.57140
 1.90000    1.81     1.83   5.57400
 1.95000    1.81     1.83   5.57390
 2.00000    1.81     1.83   5.57530
 2.05000    1.82     1.83   5.57290
 2.10000    1.82     1.83   5.57350
 2.15000    1.82     1.84   5.57630
 2.20000    1.82     1.84   5.57350
 2.25000    1.82     1.84   5.57520
 2.30000    1.82     1.84   5.57590
 2.35000    1.82     1.84   5.57800
 2.40000    1.82     1.84   5.58030
 2.45000    1.82     1.84   5.57860
 2.50000    1.82     1.84   5.58380
 2.55000    1.82     1.84   5.58440
 2.60000    1.82     1.84   5.58540
 2.65000    1.83     1.84   5.58780
 2.70000    1.83     1.84   5.59120
 2.75000    1.83     1.84   5.59290
 2.80000    1.83     1.84   5.59460
 2.85000    1.83     1.84   5.59610
 2.90000    1.83     1.84   5.59820
 2.95000    1.83     1.85   5.60250
 3.00000    1.83     1.85   5.60350
 3.05000    1.83     1.85   5.60570
 3.10000    1.83     1.85   5.60950
 3.15000    1.83     1.85   5.61330
 3.20000    1.83     1.85   5.61440
 3.25000    1.83     1.85   5.61650
 3.30000    1.83     1.85   5.62030
 3.35000    1.83     1.85   5.62030
 3.40000    1.83     1.85   5.62160
 3.45000    1.83     1.85   5.62440
 3.50000    1.83     1.85   5.62650
 3.55000    1.83     1.85   5.62630
 3.60000    1.83     1.85   5.63060
 3.65000    1.83     1.85   5.62860
 3.70000    1.83     1.85   5.63130
 3.75000    1.84     1.85   5.63460
 3.80000    1.84     1.85   5.63590
 3.85000    1.84     1.85   5.63500
 3.90000    1.84     1.85   5.63470
 3.95000    1.84     1.85   5.63550
 4.00000    1.84     1.85   5.63620
 4.05000    1.84     1.85   5.63920
 4.10000    1.84     1.85   5.64150
 4.15000    1.84     1.86   5.63890
 4.20000    1.84     1.86   5.64180
 4.25000    1.84     1.86   5.63950
 4.30000    1.84     1.86   5.64250
 4.35000    1.84     1.86   5.64330
 4.40000    1.84     1.86   5.64500
 4.45000    1.84     1.86   5.64650
 4.50000    1.84     1.86   5.64720
 4.55000    1.84     1.86   5.64690
 4.60000    1.84     1.86   5.64550
 4.65000    1.84     1.86   5.64680
 4.70000    1.84     1.86   5.64970
 4.75000    1.84     1.86   5.64780
 4.80000    1.84     1.86   5.64880
 4.85000    1.84     1.86   5.65150
 4.90000    1.84     1.86   5.65190
 4.95000    1.84     1.86   5.65140
 5.00000    1.84     1.86   5.64980
 5.00000    1.84     1.86   5.65020
 4.95000    1.84     1.86   5.64990
 4.90000    1.84     1.86   5.65070
 4.85000    1.84     1.86   5.65080
 4.80000    1.84     1.86   5.64850
 4.75000    1.84     1.86   5.64800
 4.70000    1.84     1.86   5.65060
 4.65000    1.84     1.86   5.65120
 4.60000    1.84     1.86   5.64910
 4.55000    1.84     1.86   5.64720
 4.50000    1.84     1.86   5.64640
 4.45000    1.84     1.86   5.64280
 4.40000    1.84     1.86   5.64260
 4.35000    1.84     1.86   5.63750
 4.30000    1.84     1.86   5.63740
 4.25000    1.84     1.86   5.63590
 4.20000    1.84     1.86   5.63650
 4.15000    1.84     1.86   5.63580
 4.10000    1.84     1.86   5.63560
 4.05000    1.84     1.85   5.63150
 4.00000    1.84     1.85   5.63280
 3.95000    1.84     1.85   5.63120
 3.90000    1.84     1.85   5.62900
 3.85000    1.84     1.85   5.62820
 3.80000    1.84     1.85   5.62740
 3.75000    1.83     1.85   5.62540
 3.70000    1.83     1.85   5.62600
 3.65000    1.83     1.85   5.62290
 3.60000    1.83     1.85   5.62010
 3.55000    1.83     1.85   5.62220
 3.50000    1.83     1.85   5.61940
 3.45000    1.83     1.85   5.61680
 3.40000    1.83     1.85   5.61650
 3.35000    1.83     1.85   5.61470
 3.30000    1.83     1.85   5.61240
 3.25000    1.83     1.85   5.61100
 3.20000    1.83     1.85   5.60950
 3.15000    1.83     1.85   5.60690
 3.10000    1.83     1.85   5.60940
 3.05000    1.83     1.84   5.60450
 3.00000    1.83     1.84   5.59970
 2.95000    1.83     1.84   5.59700
 2.90000    1.83     1.84   5.59190
 2.85000    1.83     1.84   5.58760
 2.80000    1.83     1.84   5.58380
 2.75000    1.83     1.84   5.58080
 2.70000    1.83     1.84   5.57870
 2.65000    1.83     1.84   5.57680
 2.60000    1.83     1.84   5.57460
 2.55000    1.83     1.84   5.57200
 2.50000    1.82     1.84   5.56960
 2.45000    1.82     1.84   5.56810
 2.40000    1.82     1.84   5.56390
 2.35000    1.82     1.84   5.56370
 2.30000    1.82     1.84   5.56340
 2.25000    1.82     1.84   5.56450
 2.20000    1.82     1.84   5.56060
 2.15000    1.82     1.84   5.56030
 2.10000    1.82     1.84   5.55900
 2.05000    1.82     1.84   5.55860
 2.00000    1.82     1.84   5.55960
 1.95000    1.82     1.83   5.56040
 1.90000    1.82     1.83   5.55630
 1.85000    1.82     1.83   5.55560
 1.80000    1.82     1.83   5.55320
 1.75000    1.82     1.83   5.55600
 1.70000    1.82     1.83   5.55570
 1.65000    1.81     1.83   5.55910
 1.60000    1.81     1.83   5.56110
 1.55000    1.81     1.83   5.56350
 1.50000    1.81     1.83   5.56980
 1.45000    1.81     1.83   5.57400
 1.40000    1.81     1.83   5.57860
 1.35000    1.81     1.83   5.58110
 1.30000    1.81     1.83   5.59090
 1.25000    1.81     1.83   5.59540
 1.20000    1.81     1.83   5.59970
 1.15000    1.81     1.83   5.60370
 1.10000    1.81     1.83   5.60450
 1.05000    1.81     1.83   5.60830
 1.00000    1.81     1.83   5.60860
 0.95000    1.80     1.83   5.61090
 0.90000    1.80     1.83   5.61120
 0.85000    1.80     1.82   5.61680
 0.80000    1.80     1.82   5.61610
 0.75000    1.80     1.82   5.61670
 0.70000    1.80     1.82   5.61570
 0.65000    1.80     1.82   5.61810
 0.60000    1.80     1.82   5.61810
 0.55000    1.80     1.82   5.61720
 0.50000    1.80     1.82   5.61940
 0.45000    1.80     1.82   5.62000
 0.40000    1.80     1.82   5.61990
 0.35000    1.80     1.82   5.61840
 0.30000    1.80     1.82   5.61500
 0.25000    1.80     1.82   5.61570
 0.20000    1.80     1.82   5.61750
 0.15000    1.80     1.82   5.61650
 0.10000    1.80     1.82   5.61750
 0.05000    1.80     1.82   5.61180
-0.00000    1.80     1.82   5.61120
