 Field[T] Tsmpl[K] Tcntr[K] Signal
 0.00000    1.80     1.82   6.86930
 0.05000    1.80     1.82   6.87130
 0.10000    1.80     1.82   6.87350
 0.15000    1.80     1.82   6.87620
 0.20000    1.80     1.82   6.88060
 0.25000    1.80     1.82   6.88830
 0.30000    1.80     1.82   6.88290
 0.35000    1.80     1.82   6.88010
 0.40000    1.80     1.82   6.88750
 0.45000    1.80     1.82   6.88200
 0.50000    1.80     1.82   6.87640
 0.55000    1.80     1.82   6.86780
 0.60000    1.80     1.82   6.86240
 0.65000    1.80     1.82   6.85690
 0.70000    1.80     1.82   6.86040
 0.75000    1.80     1.82   6.85720
 0.80000    1.80     1.82   6.85060
 0.85000    1.80     1.82   6.84740
 0.90000    1.80     1.82   6.84530
 0.95000    1.80     1.82   6.84360
 1.00000    1.80     1.82   6.84330
 1.05000    1.80     1.82   6.83730
 1.10000    1.80     1.82   6.83410
 1.15000    1.80     1.82   6.83120
 1.20000    1.80     1.83   6.82610
 1.25000    1.80     1.83   6.82130
 1.30000    1.80     1.83   6.81720
 1.35000    1.80     1.83   6.81390
 1.40000    1.81     1.83   6.80810
 1.45000    1.81     1.83   6.80570
 1.50000    1.81     1.83   6.79930
 1.55000    1.81     1.83   6.79570
 1.60000    1.81     1.83   6.78290
 1.65000    1.81     1.83   6.77660
 1.70000    1.81     1.83   6.76610
 1.75000    1.81     1.83   6.76470
 1.80000    1.81     1.83   6.76070
 1.85000    1.81     1.83   6.75380
 1.90000    1.81     1.83   6.75450
 1.95000    1.81     1.83   6.75300
 2.00000    1.81     1.83   6.74040
 2.05000    1.82     1.84   6.74160
 2.10000    1.82     1.84   6.73780
 2.15000    1.82     1.84   6.73640
 2.20000    1.82     1.84   6.74200
 2.25000    1.82     1.84   6.74030
 2.30000    1.82     1.84   6.73890
 2.35000    1.82     1.84   6.73810
 2.40000    1.82     1.84   6.73630
 2.45000    1.82     1.84   6.74280
 2.50000    1.82     1.84   6.74400
 2.55000    1.82     1.84   6.74760
 2.60000    1.82     1.84   6.74800
 2.65000    1.83     1.84   6.74980
 2.70000    1.83     1.84   6.74290
 2.75000    1.83     1.84   6.73970
 2.80000    1.83     1.85   6.73750
 2.85000    1.83     1.85   6.73050
 2.90000    1.83     1.85   6.73430
 2.95000    1.83     1.85   6.72990
 3.00000    1.83     1.85   6.72410
 3.05000    1.83     1.85   6.72520
 3.10000    1.83     1.85   6.73180
 3.15000    1.83     1.85   6.73170
 3.20000    1.83     1.85   6.73300
 3.25000    1.83     1.85   6.73890
 3.30000    1.83     1.85   6.73520
 3.35000    1.83     1.85   6.73930
 3.40000    1.83     1.85   6.74420
 3.45000    1.83     1.85   6.75240
 3.50000    1.84     1.85   6.75200
 3.55000    1.84     1.85   6.75090
 3.60000    1.84     1.85   6.75840
 3.65000    1.84     1.85   6.75840
 3.70000    1.84     1.85   6.76400
 3.75000    1.84     1.86   6.76330
 3.80000    1.84     1.86   6.76140
 3.85000    1.84     1.86   6.76350
 3.90000    1.84     1.86   6.76360
 3.95000    1.84     1.86   6.76490
 4.00000    1.84     1.86   6.76830
 4.05000    1.84     1.86   6.77400
 4.10000    1.84     1.86   6.77410
 4.15000    1.84     1.86   6.77400
 4.20000    1.84     1.86   6.78110
 4.25000    1.84     1.86   6.78700
 4.30000    1.84     1.86   6.78650
 4.35000    1.84     1.86   6.78140
 4.40000    1.84     1.86   6.77660
 4.45000    1.84     1.86   6.77070
 4.50000    1.84     1.86   6.77350
 4.55000    1.84     1.86   6.76570
 4.60000    1.84     1.86   6.76510
 4.65000    1.84     1.86   6.76270
 4.70000    1.84     1.86   6.76830
 4.75000    1.84     1.86   6.76850
 4.80000    1.84     1.86   6.76290
 4.85000    1.84     1.86   6.76430
 4.90000    1.84     1.86   6.76020
 4.95000    1.84     1.86   6.75820
 5.00000    1.85     1.86   6.76480
 5.00000    1.85     1.86   6.75820
 4.95000    1.85     1.86   6.76130
 4.90000    1.85     1.86   6.76190
 4.85000    1.85     1.86   6.75610
 4.80000    1.84     1.86   6.75530
 4.75000    1.84     1.86   6.75340
 4.70000    1.84     1.86   6.75130
 4.65000    1.84     1.86   6.75240
 4.60000    1.84     1.86   6.75270
 4.55000    1.84     1.86   6.75690
 4.50000    1.84     1.86   6.75990
 4.45000    1.84     1.86   6.75970
 4.40000    1.84     1.86   6.75350
 4.35000    1.84     1.86   6.75480
 4.30000    1.84     1.86   6.74900
 4.25000    1.84     1.86   6.75080
 4.20000    1.84     1.86   6.74830
 4.15000    1.84     1.86   6.74480
 4.10000    1.84     1.86   6.74700
 4.05000    1.84     1.85   6.74470
 4.00000    1.84     1.85   6.74230
 3.95000    1.84     1.85   6.74970
 3.90000    1.84     1.85   6.75040
 3.85000    1.84     1.85   6.74560
 3.80000    1.84     1.85   6.73300
 3.75000    1.84     1.85   6.72780
 3.70000    1.84     1.85   6.71950
 3.65000    1.83     1.85   6.71580
 3.60000    1.83     1.85   6.70760
 3.55000    1.83     1.85   6.70040
 3.50000    1.83     1.85   6.69990
 3.45000    1.83     1.85   6.69320
 3.40000    1.83     1.85   6.69090
 3.35000    1.83     1.85   6.69250
 3.30000    1.83     1.85   6.69060
 3.25000    1.83     1.85   6.69220
 3.20000    1.83     1.85   6.68750
 3.15000    1.83     1.85   6.68590
 3.10000    1.83     1.85   6.67960
 3.05000    1.83     1.85   6.67680
 3.00000    1.83     1.84   6.67280
 2.95000    1.83     1.84   6.67060
 2.90000    1.83     1.84   6.67520
 2.85000    1.83     1.84   6.67230
 2.80000    1.83     1.84   6.66970
 2.75000    1.83     1.84   6.67050
 2.70000    1.83     1.84   6.66580
 2.65000    1.83     1.84   6.66630
 2.60000    1.83     1.84   6.66410
 2.55000    1.83     1.84   6.66230
 2.50000    1.83     1.84   6.66170
 2.45000    1.82     1.84   6.66170
 2.40000    1.82     1.84   6.66060
 2.35000    1.82     1.84   6.65970
 2.30000    1.82     1.84   6.66190
 2.25000    1.82     1.84   6.65600
 2.20000    1.82     1.84   6.65500
 2.15000    1.82     1.84   6.65490
 2.10000    1.82     1.84   6.65470
 2.05000    1.82     1.84   6.65320
 2.00000    1.82     1.83   6.65510
 1.95000    1.82     1.83   6.65510
 1.90000    1.82     1.83   6.65830
 1.85000    1.82     1.83   6.66290
 1.80000    1.82     1.83   6.66720
 1.75000    1.82     1.83   6.66980
 1.70000    1.82     1.83   6.66890
 1.65000    1.82     1.83   6.67440
 1.60000    1.82     1.83   6.68430
 1.55000    1.81     1.83   6.68950
 1.50000    1.81     1.83   6.70120
 1.45000    1.81     1.83   6.70140
 1.40000    1.81     1.83   6.70680
 1.35000    1.81     1.83   6.71460
 1.30000    1.81     1.83   6.71970
 1.25000    1.81     1.83   6.71950
 1.20000    1.81     1.83   6.72220
 1.15000    1.81     1.83   6.72860
 1.10000    1.81     1.83   6.72710
 1.05000    1.81     1.83   6.72930
 1.00000    1.81     1.83   6.72990
 0.95000    1.81     1.83   6.73700
 0.90000    1.80     1.83   6.73630
 0.85000    1.80     1.82   6.73490
 0.80000    1.80     1.82   6.73890
 0.75000    1.80     1.82   6.74100
 0.70000    1.80     1.82   6.73940
 0.65000    1.80     1.82   6.74050
 0.60000    1.80     1.82   6.74760
 0.55000    1.80     1.82   6.74700
 0.50000    1.80     1.82   6.74300
 0.45000    1.80     1.82   6.74400
 0.40000    1.80     1.82   6.74690
 0.35000    1.80     1.82   6.74140
 0.30000    1.80     1.82   6.74920
 0.25000    1.80     1.82   6.74440
 0.20000    1.80     1.82   6.74090
 0.15000    1.80     1.82   6.73830
 0.10000    1.80     1.82   6.73820
 0.05000    1.80     1.82   6.73390
-0.00000    1.80     1.82   6.73680
