 Field[T] Tsmpl[K] Tcntr[K] Signal   Mirror[MM]
 0.00000    1.85     1.85   0.79479  -8.8466
 0.05000    1.85     1.85   0.79543  -8.8464
 0.10000    1.85     1.85   0.79598  -8.8481
 0.15000    1.85     1.85   0.79202  -8.8486
 0.20000    1.85     1.85   0.78577  -8.8495
 0.25000    1.85     1.85   0.78073  -8.8563
 0.30000    1.85     1.85   0.79167  -8.8595
 0.35000    1.85     1.85   0.80508  -8.8625
 0.40000    1.85     1.85   0.81868  -8.8648
 0.45000    1.85     1.85   0.83062  -8.8663
 0.50000    1.85     1.85   0.84257  -8.8673
 0.55000    1.85     1.85   0.85147  -8.8665
 0.60000    1.85     1.85   0.86233  -8.8667
 0.65000    1.85     1.85   0.87297  -8.8658
 0.70000    1.85     1.85   0.88116  -8.8640
 0.75000    1.85     1.85   0.88428  -8.8626
 0.80000    1.85     1.85   0.88640  -8.8612
 0.85000    1.85     1.85   0.88887  -8.8605
 0.90000    1.85     1.85   0.89238  -8.8593
 0.95000    1.85     1.85   0.89320  -8.8591
 1.00000    1.85     1.85   0.89549  -8.8588
 1.05000    1.85     1.85   0.89594  -8.8584
 1.10000    1.85     1.85   0.89659  -8.8572
 1.15000    1.85     1.85   0.90035  -8.8574
 1.20000    1.85     1.85   0.90137  -8.8573
 1.25000    1.85     1.85   0.90257  -8.8567
 1.30000    1.85     1.85   0.90182  -8.8566
 1.35000    1.85     1.85   0.90431  -8.8560
 1.40000    1.85     1.85   0.90568  -8.8564
 1.45000    1.85     1.85   0.90294  -8.8562
 1.50000    1.85     1.85   0.90321  -8.8556
 1.55000    1.85     1.85   0.90394  -8.8557
 1.60000    1.85     1.85   0.90735  -8.8555
 1.65000    1.85     1.85   0.90753  -8.8555
 1.70000    1.85     1.85   0.90643  -8.8546
 1.75000    1.85     1.85   0.90643  -8.8552
 1.80000    1.85     1.85   0.90449  -8.8547
 1.85000    1.85     1.85   0.90155  -8.8546
 1.90000    1.85     1.85   0.90541  -8.8546
 1.95000    1.85     1.85   0.90725  -8.8542
 2.00000    1.85     1.85   0.90606  -8.8537
 2.05000    1.85     1.85   0.90596  -8.8539
 2.10000    1.85     1.85   0.90680  -8.8542
 2.15000    1.85     1.85   0.90633  -8.8543
 2.20000    1.85     1.85   0.90688  -8.8543
 2.25000    1.85     1.85   0.90800  -8.8542
 2.30000    1.85     1.85   0.90615  -8.8545
 2.35000    1.85     1.85   0.90661  -8.8541
 2.40000    1.85     1.85   0.90449  -8.8541
 2.45000    1.85     1.85   0.90504  -8.8531
 2.50000    1.85     1.85   0.90680  -8.8530
 2.55000    1.85     1.85   0.90708  -8.8534
 2.60000    1.85     1.85   0.90680  -8.8535
 2.65000    1.85     1.85   0.90708  -8.8527
 2.70000    1.85     1.85   0.90551  -8.8537
 2.75000    1.85     1.85   0.90496  -8.8535
 2.80000    1.85     1.85   0.90459  -8.8531
 2.85000    1.85     1.85   0.90606  -8.8537
 2.90000    1.85     1.85   0.90431  -8.8535
 2.95000    1.85     1.85   0.90339  -8.8530
 3.00000    1.85     1.85   0.90376  -8.8529
 3.00000    1.85     1.85   0.90578  -8.8529
 2.95000    1.85     1.85   0.90790  -8.8538
 2.90000    1.85     1.85   0.90743  -8.8539
 2.85000    1.85     1.85   0.90257  -8.8514
 2.80000    1.85     1.85   0.90431  -8.8529
 2.75000    1.85     1.85   0.90496  -8.8533
 2.70000    1.85     1.85   0.90568  -8.8536
 2.65000    1.85     1.85   0.90623  -8.8532
 2.60000    1.85     1.85   0.90623  -8.8532
 2.55000    1.85     1.85   0.90441  -8.8532
 2.50000    1.85     1.85   0.90578  -8.8537
 2.45000    1.85     1.85   0.90698  -8.8538
 2.40000    1.85     1.85   0.90633  -8.8533
 2.35000    1.85     1.85   0.90743  -8.8535
 2.30000    1.85     1.85   0.90762  -8.8531
 2.25000    1.85     1.85   0.90808  -8.8535
 2.20000    1.85     1.85   0.90862  -8.8532
 2.15000    1.85     1.85   0.90917  -8.8531
 2.10000    1.85     1.85   0.90862  -8.8536
 2.05000    1.85     1.85   0.90890  -8.8534
 2.00000    1.85     1.85   0.90855  -8.8531
 1.95000    1.85     1.85   0.90862  -8.8535
 1.90000    1.85     1.85   0.90947  -8.8537
 1.85000    1.85     1.85   0.91074  -8.8537
 1.80000    1.85     1.85   0.91037  -8.8537
 1.75000    1.85     1.85   0.90964  -8.8536
 1.70000    1.85     1.85   0.91084  -8.8543
 1.65000    1.85     1.85   0.91064  -8.8538
 1.60000    1.85     1.85   0.91074  -8.8545
 1.55000    1.85     1.85   0.91102  -8.8546
 1.50000    1.85     1.85   0.90974  -8.8547
 1.45000    1.85     1.85   0.90982  -8.8549
 1.40000    1.85     1.85   0.91064  -8.8556
 1.35000    1.85     1.85   0.90890  -8.8551
 1.30000    1.85     1.85   0.90890  -8.8548
 1.25000    1.85     1.85   0.90955  -8.8557
 1.20000    1.85     1.85   0.90982  -8.8563
 1.15000    1.85     1.85   0.90845  -8.8562
 1.10000    1.85     1.85   0.90947  -8.8566
 1.05000    1.85     1.85   0.90770  -8.8571
 1.00000    1.85     1.85   0.90817  -8.8573
 0.95000    1.85     1.85   0.90533  -8.8578
 0.90000    1.85     1.85   0.90386  -8.8587
 0.85000    1.85     1.85   0.90367  -8.8591
 0.80000    1.85     1.85   0.90110  -8.8595
 0.75000    1.85     1.85   0.88924  -8.8564
 0.70000    1.85     1.85   0.89751  -8.8618
 0.65000    1.85     1.85   0.88897  -8.8626
 0.60000    1.85     1.85   0.87409  -8.8610
 0.55000    1.85     1.85   0.87078  -8.8652
 0.50000    1.85     1.85   0.86196  -8.8649
 0.45000    1.85     1.85   0.84900  -8.8637
 0.40000    1.85     1.85   0.83908  -8.8626
 0.35000    1.85     1.85   0.82723  -8.8598
 0.30000    1.85     1.85   0.81307  -8.8555
 0.25000    1.85     1.85   0.81113  -8.8555
 0.20000    1.85     1.85   0.81270  -8.8476
 0.15000    1.85     1.85   0.81886  -8.8447
 0.10000    1.85     1.85   0.82446  -8.8438
 0.05000    1.85     1.85   0.82521  -8.8426
 -0.00000    1.85     1.85   0.82603  -8.8426
