 Field[T] Tsmpl[K] Tcntr[K] Signal   Mirror[MM]
 0.00000    1.78     1.78   0.20477  -8.9362
 0.05000    1.78     1.78   0.20386  -8.9359
 0.10000    1.78     1.78   0.20357  -8.9359
 0.15000    1.78     1.78   0.20325  -8.9357
 0.20000    1.78     1.78   0.20250  -8.9359
 0.25000    1.78     1.78   0.20191  -8.9359
 0.30000    1.78     1.78   0.20156  -8.9359
 0.35000    1.78     1.78   0.20097  -8.9356
 0.40000    1.78     1.78   0.20070  -8.9356
 0.45000    1.78     1.78   0.20004  -8.9354
 0.50000    1.78     1.78   0.19996  -8.9354
 0.55000    1.78     1.78   0.19995  -8.9352
 0.60000    1.78     1.78   0.19976  -8.9351
 0.65000    1.78     1.78   0.19914  -8.9350
 0.70000    1.78     1.78   0.19873  -8.9347
 0.75000    1.78     1.78   0.19816  -8.9352
 0.80000    1.78     1.78   0.19826  -8.9358
 0.85000    1.78     1.78   0.19801  -8.9361
 0.90000    1.78     1.78   0.19792  -8.9362
 0.95000    1.78     1.78   0.19780  -8.9362
 1.00000    1.78     1.78   0.19793  -8.9365
 1.05000    1.78     1.78   0.19820  -8.9369
 1.10000    1.78     1.78   0.19825  -8.9366
 1.15000    1.78     1.78   0.19833  -8.9365
 1.20000    1.78     1.78   0.19884  -8.9363
 1.25000    1.78     1.78   0.19911  -8.9362
 1.30000    1.78     1.78   0.19849  -8.9361
 1.35000    1.78     1.78   0.19806  -8.9360
 1.40000    1.78     1.78   0.19798  -8.9361
 1.45000    1.78     1.78   0.19817  -8.9364
 1.50000    1.78     1.78   0.19790  -8.9362
 1.55000    1.78     1.78   0.19770  -8.9361
 1.60000    1.78     1.78   0.19790  -8.9361
 1.65000    1.78     1.78   0.19782  -8.9358
 1.70000    1.78     1.78   0.19770  -8.9360
 1.75000    1.78     1.78   0.19752  -8.9360
 1.80000    1.78     1.78   0.19754  -8.9359
 1.85000    1.78     1.78   0.19763  -8.9359
 1.90000    1.78     1.78   0.19769  -8.9359
 1.95000    1.78     1.78   0.19776  -8.9359
 2.00000    1.78     1.78   0.19775  -8.9357
 2.05000    1.78     1.78   0.19763  -8.9358
 2.10000    1.78     1.78   0.19762  -8.9356
 2.15000    1.78     1.78   0.19777  -8.9353
 2.20000    1.78     1.78   0.19801  -8.9352
 2.25000    1.78     1.78   0.19805  -8.9357
 2.30000    1.78     1.78   0.19823  -8.9358
 2.35000    1.78     1.78   0.19821  -8.9356
 2.40000    1.78     1.78   0.19789  -8.9354
 2.45000    1.78     1.78   0.19799  -8.9355
 2.50000    1.78     1.78   0.19801  -8.9358
 2.55000    1.78     1.78   0.19827  -8.9357
 2.60000    1.78     1.78   0.19887  -8.9355
 2.65000    1.78     1.78   0.19839  -8.9354
 2.70000    1.78     1.78   0.19824  -8.9355
 2.75000    1.78     1.78   0.19848  -8.9353
 2.80000    1.78     1.78   0.19814  -8.9353
 2.85000    1.78     1.78   0.19830  -8.9353
 2.90000    1.78     1.78   0.19808  -8.9354
 2.95000    1.78     1.78   0.19853  -8.9353
 3.00000    1.78     1.78   0.19836  -8.9353
 3.00000    1.78     1.78   0.19820  -8.9354
 2.95000    1.78     1.78   0.19810  -8.9353
 2.90000    1.78     1.78   0.19817  -8.9352
 2.85000    1.78     1.78   0.19833  -8.9352
 2.80000    1.78     1.78   0.19835  -8.9351
 2.75000    1.78     1.78   0.19890  -8.9354
 2.70000    1.78     1.78   0.19842  -8.9351
 2.65000    1.78     1.78   0.19822  -8.9349
 2.60000    1.78     1.78   0.19824  -8.9350
 2.55000    1.78     1.78   0.19811  -8.9350
 2.50000    1.78     1.78   0.19835  -8.9348
 2.45000    1.78     1.78   0.19851  -8.9348
 2.40000    1.78     1.78   0.19837  -8.9350
 2.35000    1.78     1.78   0.19846  -8.9350
 2.30000    1.78     1.78   0.19846  -8.9352
 2.25000    1.78     1.78   0.19859  -8.9350
 2.20000    1.78     1.78   0.19852  -8.9346
 2.15000    1.78     1.78   0.19885  -8.9348
 2.10000    1.78     1.78   0.19856  -8.9347
 2.05000    1.78     1.78   0.19866  -8.9348
 2.00000    1.78     1.78   0.19866  -8.9348
 1.95000    1.78     1.78   0.19873  -8.9348
 1.90000    1.78     1.78   0.19876  -8.9350
 1.85000    1.78     1.78   0.19937  -8.9349
 1.80000    1.78     1.78   0.19913  -8.9348
 1.75000    1.78     1.78   0.19943  -8.9350
 1.70000    1.78     1.78   0.19920  -8.9352
 1.65000    1.78     1.78   0.19910  -8.9347
 1.60000    1.78     1.78   0.19931  -8.9348
 1.55000    1.78     1.78   0.19887  -8.9348
 1.50000    1.78     1.78   0.19866  -8.9350
 1.45000    1.78     1.78   0.19849  -8.9348
 1.40000    1.78     1.78   0.19869  -8.9348
 1.35000    1.78     1.78   0.19921  -8.9347
 1.30000    1.78     1.78   0.19946  -8.9348
 1.25000    1.78     1.78   0.19918  -8.9351
 1.20000    1.78     1.78   0.19825  -8.9350
 1.15000    1.78     1.78   0.19787  -8.9350
 1.10000    1.78     1.78   0.19787  -8.9351
 1.05000    1.78     1.78   0.19795  -8.9352
 1.00000    1.78     1.78   0.19831  -8.9353
 0.95000    1.78     1.78   0.19788  -8.9351
 0.90000    1.78     1.78   0.19758  -8.9349
 0.85000    1.78     1.78   0.19725  -8.9346
 0.80000    1.78     1.78   0.19686  -8.9344
 0.75000    1.78     1.78   0.19644  -8.9339
 0.70000    1.78     1.78   0.19663  -8.9332
 0.65000    1.78     1.78   0.19710  -8.9334
 0.60000    1.78     1.78   0.19734  -8.9335
 0.55000    1.78     1.78   0.19766  -8.9335
 0.50000    1.78     1.78   0.19767  -8.9337
 0.45000    1.78     1.78   0.19751  -8.9334
 0.40000    1.78     1.78   0.19745  -8.9335
 0.35000    1.78     1.78   0.19772  -8.9338
 0.30000    1.78     1.78   0.19787  -8.9338
 0.25000    1.78     1.78   0.19790  -8.9338
 0.20000    1.78     1.78   0.19809  -8.9339
 0.15000    1.78     1.78   0.19768  -8.9338
 0.10000    1.78     1.78   0.19768  -8.9337
 0.05000    1.78     1.78   0.19752  -8.9334
 -0.00000    1.78     1.78   0.19751  -8.9338
