 Field[T] Tsmpl[K] Tcntr[K] Signal   Mirror[MM]
 0.00000    1.81     1.81   0.25547  -9.0167
 0.05000    1.81     1.81   0.25555  -9.0167
 0.10000    1.81     1.81   0.25552  -9.0166
 0.15000    1.81     1.81   0.25564  -9.0166
 0.20000    1.81     1.81   0.25580  -9.0166
 0.25000    1.81     1.81   0.25587  -9.0166
 0.30000    1.81     1.81   0.25631  -9.0166
 0.35000    1.81     1.81   0.25721  -9.0165
 0.40000    1.81     1.81   0.25742  -9.0167
 0.45000    1.81     1.81   0.25711  -9.0163
 0.50000    1.81     1.81   0.25704  -9.0165
 0.55000    1.81     1.81   0.25691  -9.0164
 0.60000    1.81     1.81   0.25697  -9.0165
 0.65000    1.81     1.81   0.25696  -9.0165
 0.70000    1.81     1.81   0.25728  -9.0165
 0.75000    1.81     1.81   0.25712  -9.0164
 0.80000    1.81     1.81   0.25728  -9.0165
 0.85000    1.81     1.81   0.25752  -9.0164
 0.90000    1.81     1.81   0.25796  -9.0163
 0.95000    1.81     1.81   0.25847  -9.0161
 1.00000    1.81     1.81   0.25783  -9.0164
 1.05000    1.81     1.81   0.25767  -9.0164
 1.10000    1.81     1.81   0.25750  -9.0163
 1.15000    1.81     1.81   0.25750  -9.0164
 1.20000    1.81     1.81   0.25758  -9.0164
 1.25000    1.81     1.81   0.25753  -9.0167
 1.30000    1.81     1.81   0.25762  -9.0166
 1.35000    1.81     1.81   0.25766  -9.0166
 1.40000    1.81     1.81   0.25777  -9.0165
 1.45000    1.81     1.81   0.25788  -9.0162
 1.50000    1.81     1.81   0.25797  -9.0162
 1.55000    1.81     1.81   0.25799  -9.0164
 1.60000    1.81     1.81   0.25816  -9.0163
 1.65000    1.81     1.81   0.25844  -9.0160
 1.70000    1.81     1.81   0.25928  -9.0160
 1.75000    1.81     1.81   0.25883  -9.0160
 1.80000    1.81     1.81   0.25840  -9.0161
 1.85000    1.81     1.81   0.25809  -9.0161
 1.90000    1.81     1.81   0.25791  -9.0161
 1.95000    1.81     1.81   0.25788  -9.0161
 2.00000    1.81     1.81   0.25791  -9.0161
 2.05000    1.81     1.81   0.25780  -9.0162
 2.10000    1.81     1.81   0.25782  -9.0161
 2.15000    1.81     1.81   0.25790  -9.0163
 2.20000    1.81     1.81   0.25787  -9.0163
 2.25000    1.81     1.81   0.25793  -9.0164
 2.30000    1.81     1.81   0.25809  -9.0163
 2.35000    1.81     1.81   0.25828  -9.0164
 2.40000    1.81     1.81   0.25842  -9.0162
 2.45000    1.81     1.81   0.25810  -9.0164
 2.50000    1.81     1.81   0.25787  -9.0164
 2.55000    1.81     1.81   0.25783  -9.0163
 2.60000    1.81     1.81   0.25783  -9.0162
 2.65000    1.81     1.81   0.25781  -9.0163
 2.70000    1.81     1.81   0.25787  -9.0164
 2.75000    1.81     1.81   0.25781  -9.0163
 2.80000    1.81     1.81   0.25801  -9.0162
 2.85000    1.81     1.81   0.25807  -9.0161
 2.90000    1.81     1.81   0.25823  -9.0162
 2.95000    1.81     1.81   0.25867  -9.0163
 3.00000    1.81     1.81   0.25869  -9.0162
 3.05000    1.81     1.81   0.25839  -9.0161
 3.10000    1.81     1.81   0.25834  -9.0160
 3.15000    1.81     1.81   0.25829  -9.0160
 3.20000    1.81     1.81   0.25829  -9.0161
 3.25000    1.81     1.81   0.25853  -9.0160
 3.30000    1.81     1.81   0.25864  -9.0162
 3.35000    1.81     1.81   0.25915  -9.0161
 3.40000    1.81     1.81   0.25892  -9.0161
 3.45000    1.81     1.81   0.25849  -9.0160
 3.50000    1.81     1.81   0.25825  -9.0160
 3.55000    1.81     1.81   0.25830  -9.0159
 3.60000    1.81     1.81   0.25829  -9.0160
 3.65000    1.81     1.81   0.25825  -9.0159
 3.70000    1.81     1.81   0.25831  -9.0159
 3.75000    1.81     1.81   0.25826  -9.0158
 3.80000    1.81     1.81   0.25829  -9.0158
 3.85000    1.81     1.81   0.25861  -9.0157
 3.90000    1.81     1.81   0.25877  -9.0156
 3.95000    1.81     1.81   0.25953  -9.0158
 4.00000    1.81     1.81   0.25950  -9.0157
 4.05000    1.81     1.81   0.25907  -9.0158
 4.10000    1.81     1.81   0.25883  -9.0157
 4.15000    1.81     1.81   0.25866  -9.0159
 4.20000    1.81     1.81   0.25866  -9.0157
 4.25000    1.81     1.81   0.25881  -9.0156
 4.30000    1.81     1.81   0.25875  -9.0156
 4.35000    1.81     1.81   0.25882  -9.0157
 4.40000    1.81     1.81   0.25916  -9.0159
 4.45000    1.81     1.81   0.25911  -9.0157
 4.50000    1.81     1.81   0.25869  -9.0158
 4.55000    1.81     1.81   0.25823  -9.0158
 4.60000    1.81     1.81   0.25799  -9.0157
 4.65000    1.81     1.81   0.25776  -9.0156
 4.70000    1.81     1.81   0.25786  -9.0157
 4.75000    1.81     1.81   0.25806  -9.0158
 4.80000    1.81     1.81   0.25835  -9.0156
 4.85000    1.81     1.81   0.25842  -9.0155
 4.90000    1.81     1.81   0.25809  -9.0156
 4.95000    1.81     1.81   0.25799  -9.0156
 5.00000    1.81     1.81   0.25804  -9.0158
 5.00000    1.81     1.81   0.25805  -9.0157
 4.95000    1.81     1.81   0.25788  -9.0157
 4.90000    1.81     1.81   0.25752  -9.0158
 4.85000    1.81     1.81   0.25733  -9.0157
 4.80000    1.81     1.81   0.25740  -9.0159
 4.75000    1.81     1.81   0.25753  -9.0160
 4.70000    1.81     1.81   0.25735  -9.0159
 4.65000    1.81     1.81   0.25721  -9.0156
 4.60000    1.81     1.81   0.25707  -9.0156
 4.55000    1.81     1.81   0.25710  -9.0156
 4.50000    1.81     1.81   0.25701  -9.0156
 4.45000    1.81     1.81   0.25729  -9.0156
 4.40000    1.81     1.81   0.25738  -9.0156
 4.35000    1.81     1.81   0.25802  -9.0156
 4.30000    1.81     1.81   0.25793  -9.0156
 4.25000    1.81     1.81   0.25791  -9.0157
 4.20000    1.81     1.81   0.25799  -9.0158
 4.15000    1.81     1.81   0.25805  -9.0157
 4.10000    1.81     1.81   0.25831  -9.0156
 4.05000    1.81     1.81   0.25853  -9.0158
 4.00000    1.81     1.81   0.25819  -9.0158
 3.95000    1.81     1.81   0.25816  -9.0158
 3.90000    1.81     1.81   0.25839  -9.0157
 3.85000    1.81     1.81   0.25853  -9.0156
 3.80000    1.81     1.81   0.25892  -9.0156
 3.75000    1.81     1.81   0.25920  -9.0155
 3.70000    1.81     1.81   0.25901  -9.0156
 3.65000    1.81     1.81   0.25859  -9.0155
 3.60000    1.81     1.81   0.25819  -9.0157
 3.55000    1.81     1.81   0.25797  -9.0158
 3.50000    1.81     1.81   0.25767  -9.0158
 3.45000    1.81     1.81   0.25787  -9.0157
 3.40000    1.81     1.81   0.25824  -9.0160
 3.35000    1.81     1.81   0.25852  -9.0158
 3.30000    1.81     1.81   0.25833  -9.0157
 3.25000    1.81     1.81   0.25840  -9.0159
 3.20000    1.81     1.81   0.25810  -9.0158
 3.15000    1.81     1.81   0.25875  -9.0158
 3.10000    1.81     1.81   0.25920  -9.0156
 3.05000    1.81     1.81   0.25896  -9.0162
 3.00000    1.81     1.81   0.25839  -9.0158
 2.95000    1.81     1.81   0.25835  -9.0156
 2.90000    1.81     1.81   0.25793  -9.0159
 2.85000    1.81     1.81   0.25815  -9.0153
 2.80000    1.81     1.81   0.25818  -9.0154
 2.75000    1.81     1.81   0.25880  -9.0155
 2.70000    1.81     1.81   0.25849  -9.0156
 2.65000    1.81     1.81   0.25838  -9.0158
 2.60000    1.81     1.81   0.25887  -9.0158
 2.55000    1.81     1.81   0.25877  -9.0156
 2.50000    1.81     1.81   0.25904  -9.0157
 2.45000    1.81     1.81   0.25904  -9.0159
 2.40000    1.81     1.81   0.25844  -9.0159
 2.35000    1.81     1.81   0.25838  -9.0159
 2.30000    1.81     1.81   0.25862  -9.0156
 2.25000    1.81     1.81   0.25847  -9.0158
 2.20000    1.81     1.81   0.25919  -9.0153
 2.15000    1.81     1.81   0.25904  -9.0153
 2.10000    1.81     1.81   0.25858  -9.0157
 2.05000    1.81     1.81   0.25810  -9.0152
 2.00000    1.81     1.81   0.25781  -9.0159
 1.95000    1.81     1.81   0.25726  -9.0159
 1.90000    1.81     1.81   0.25818  -9.0158
 1.85000    1.81     1.81   0.25856  -9.0157
 1.80000    1.81     1.81   0.25890  -9.0156
 1.75000    1.81     1.81   0.25891  -9.0155
 1.70000    1.81     1.81   0.25858  -9.0153
 1.65000    1.81     1.81   0.25845  -9.0152
 1.60000    1.81     1.81   0.25868  -9.0154
 1.55000    1.81     1.81   0.25883  -9.0153
 1.50000    1.81     1.81   0.25844  -9.0154
 1.45000    1.81     1.81   0.25847  -9.0156
 1.40000    1.81     1.81   0.25834  -9.0154
 1.35000    1.81     1.81   0.25842  -9.0156
 1.30000    1.81     1.81   0.25820  -9.0155
 1.25000    1.81     1.81   0.25868  -9.0157
 1.20000    1.81     1.81   0.25934  -9.0154
 1.15000    1.81     1.81   0.25920  -9.0155
 1.10000    1.81     1.81   0.25890  -9.0155
 1.05000    1.81     1.81   0.25904  -9.0157
 1.00000    1.81     1.81   0.25918  -9.0156
 0.95000    1.81     1.81   0.25940  -9.0154
 0.90000    1.81     1.81   0.25909  -9.0154
 0.85000    1.81     1.81   0.25891  -9.0154
 0.80000    1.81     1.81   0.25933  -9.0153
 0.75000    1.81     1.81   0.25919  -9.0152
 0.70000    1.81     1.81   0.25957  -9.0152
 0.65000    1.81     1.81   0.25972  -9.0152
 0.60000    1.81     1.81   0.25933  -9.0150
 0.55000    1.81     1.81   0.25895  -9.0150
 0.50000    1.81     1.81   0.25878  -9.0152
 0.45000    1.81     1.81   0.25873  -9.0151
 0.40000    1.81     1.81   0.25880  -9.0150
 0.35000    1.81     1.81   0.25878  -9.0149
 0.30000    1.81     1.81   0.25888  -9.0146
 0.25000    1.81     1.81   0.25929  -9.0149
 0.20000    1.81     1.81   0.25902  -9.0150
 0.15000    1.81     1.81   0.25896  -9.0150
 0.10000    1.81     1.81   0.25875  -9.0150
 0.05000    1.81     1.81   0.25875  -9.0150
 -0.00000    1.81     1.81   0.25873  -9.0151
