 Field[T] Tsmpl[K] Tcntr[K] Signal   Mirror[MM]
 0.00000    5.42     2.94   2.42358  1.0917
 0.05000    5.41     2.96   2.42302  1.0913
 0.10000    5.41     2.98   2.42356  1.0911
 0.15000    5.42     2.97   2.42316  1.0910
 0.20000    5.42     2.97   2.42283  1.0910
 0.25000    5.42     2.98   2.42261  1.0906
 0.30000    5.43     2.99   2.42271  1.0903
 0.35000    5.43     2.98   2.42210  1.0900
 0.40000    5.44     2.99   2.42249  1.0899
 0.45000    5.45     2.98   2.42144  1.0895
 0.50000    5.45     2.99   2.41928  1.0893
 0.55000    5.46     2.99   2.41783  1.0891
 0.60000    5.47     3.01   2.41724  1.0890
 0.65000    5.47     2.99   2.41719  1.0888
 0.70000    5.47     3.00   2.41479  1.0886
 0.75000    5.48     2.99   2.41315  1.0885
 0.80000    5.48     3.00   2.41179  1.0881
 0.85000    5.48     3.00   2.40979  1.0881
 0.90000    5.48     3.01   2.40852  1.0880
 0.95000    5.49     3.00   2.40698  1.0878
 1.00000    5.49     3.01   2.40508  1.0877
 1.05000    5.49     2.99   2.40179  1.0876
 1.10000    5.49     3.02   2.39892  1.0874
 1.15000    5.49     2.98   2.39489  1.0873
 1.20000    5.50     2.99   2.39113  1.0871
 1.25000    5.50     2.99   2.38512  1.0872
 1.30000    5.51     2.99   2.37856  1.0870
 1.35000    5.52     2.98   2.36942  1.0868
 1.40000    5.52     2.99   2.35972  1.0861
 1.45000    5.53     3.03   2.34944  1.0850
 1.50000    5.53     2.99   2.34495  1.0834
 1.55000    5.52     2.99   2.35508  1.0820
 1.60000    5.51     2.99   2.37070  1.0813
 1.65000    5.50     2.99   2.38761  1.0809
 1.70000    5.50     2.98   2.40070  1.0809
 1.75000    5.49     3.00   2.41095  1.0810
 1.80000    5.49     2.99   2.41947  1.0813
 1.85000    5.48     3.00   2.42475  1.0817
 1.90000    5.49     3.00   2.42894  1.0820
 1.95000    5.49     3.01   2.43359  1.0822
 2.00000    5.49     3.00   2.43527  1.0822
 2.05000    5.51     3.01   2.43767  1.0825
 2.10000    5.53     3.00   2.43832  1.0825
 2.15000    5.54     3.00   2.43848  1.0827
 2.20000    5.54     3.00   2.43905  1.0829
 2.25000    5.55     2.99   2.43958  1.0830
 2.30000    5.55     2.99   2.44026  1.0831
 2.35000    5.55     2.99   2.44056  1.0834
 2.40000    5.55     3.02   2.44078  1.0830
 2.45000    5.55     3.00   2.44099  1.0832
 2.50000    5.54     3.00   2.44117  1.0832
 2.55000    5.53     3.00   2.44178  1.0833
 2.60000    5.52     3.01   2.44402  1.0834
 2.65000    5.52     3.00   2.44335  1.0833
 2.70000    5.51     3.00   2.44242  1.0833
 2.75000    5.51     3.00   2.44142  1.0834
 2.80000    5.51     3.03   2.44167  1.0834
 2.85000    5.52     3.00   2.44207  1.0835
 2.90000    5.52     3.00   2.44244  1.0835
 2.95000    5.52     3.01   2.44219  1.0835
 3.00000    5.51     3.01   2.44284  1.0834
 3.05000    5.52     3.00   2.44276  1.0833
 3.10000    5.52     3.01   2.44265  1.0835
 3.15000    5.52     3.00   2.44208  1.0835
 3.20000    5.52     3.00   2.44152  1.0834
 3.25000    5.53     3.00   2.44177  1.0836
 3.30000    5.53     3.02   2.44079  1.0837
 3.35000    5.53     3.00   2.44190  1.0838
 3.40000    5.53     3.00   2.44094  1.0837
 3.45000    5.53     3.00   2.44224  1.0838
 3.50000    5.53     3.00   2.44339  1.0839
 3.55000    5.53     3.00   2.44245  1.0839
 3.60000    5.52     3.01   2.44210  1.0838
 3.65000    5.52     3.02   2.44181  1.0842
 3.70000    5.53     3.00   2.44286  1.0841
 3.75000    5.53     3.01   2.44285  1.0843
 3.80000    5.53     3.01   2.44359  1.0843
 3.85000    5.53     3.01   2.44320  1.0840
 3.90000    5.52     3.01   2.44308  1.0841
 3.95000    5.52     3.00   2.44319  1.0844
 4.00000    5.52     3.00   2.44186  1.0843
 4.05000    5.52     3.01   2.44259  1.0841
 4.10000    5.52     2.99   2.44275  1.0841
 4.15000    5.52     2.99   2.44176  1.0843
 4.20000    5.52     3.01   2.44254  1.0844
 4.25000    5.52     2.99   2.44138  1.0844
 4.30000    5.52     3.02   2.44157  1.0843
 4.35000    5.52     3.00   2.44115  1.0844
 4.40000    5.51     3.01   2.44175  1.0843
 4.45000    5.51     3.00   2.44049  1.0843
 4.50000    5.51     3.00   2.44084  1.0844
 4.55000    5.51     3.00   2.44082  1.0844
 4.60000    5.51     3.00   2.44143  1.0843
 4.65000    5.51     3.00   2.44285  1.0846
 4.70000    5.51     3.00   2.44175  1.0847
 4.75000    5.52     3.01   2.44003  1.0845
 4.80000    5.52     3.01   2.43927  1.0846
 4.85000    5.52     3.00   2.43853  1.0845
 4.90000    5.52     3.00   2.43802  1.0846
 4.95000    5.51     3.01   2.43752  1.0846
 5.00000    5.50     2.99   2.43673  1.0845
 5.00000    5.50     3.00   2.43751  1.0847
 4.95000    5.49     3.02   2.43845  1.0845
 4.90000    5.48     2.99   2.43949  1.0844
 4.85000    5.47     3.00   2.43943  1.0846
 4.80000    5.47     3.00   2.43971  1.0845
 4.75000    5.47     3.01   2.44036  1.0844
 4.70000    5.47     3.00   2.44130  1.0842
 4.65000    5.47     3.00   2.44093  1.0843
 4.60000    5.47     3.02   2.44229  1.0842
 4.55000    5.48     2.99   2.44275  1.0842
 4.50000    5.49     3.01   2.44271  1.0846
 4.45000    5.49     3.01   2.44358  1.0845
 4.40000    5.50     3.01   2.44437  1.0840
 4.35000    5.50     3.01   2.44466  1.0840
 4.30000    5.51     3.00   2.44553  1.0839
 4.25000    5.51     3.00   2.44605  1.0839
 4.20000    5.51     3.00   2.44667  1.0841
 4.15000    5.52     3.01   2.44741  1.0839
 4.10000    5.52     3.01   2.44725  1.0839
 4.05000    5.52     3.00   2.44762  1.0838
 4.00000    5.52     2.99   2.45072  1.0838
 3.95000    5.53     3.01   2.45011  1.0837
 3.90000    5.53     3.00   2.45041  1.0838
 3.85000    5.53     3.01   2.45052  1.0838
 3.80000    5.54     3.01   2.45010  1.0839
 3.75000    5.54     3.01   2.45021  1.0838
 3.70000    5.54     3.00   2.45104  1.0838
 3.65000    5.54     3.00   2.45203  1.0838
 3.60000    5.54     3.01   2.45359  1.0836
 3.55000    5.55     3.00   2.45446  1.0835
 3.50000    5.55     3.01   2.45492  1.0833
 3.45000    5.55     3.00   2.45502  1.0833
 3.40000    5.55     3.00   2.45466  1.0831
 3.35000    5.55     3.00   2.45546  1.0832
 3.30000    5.55     3.02   2.45580  1.0833
 3.25000    5.56     3.00   2.45654  1.0833
 3.20000    5.56     3.01   2.45703  1.0833
 3.15000    5.56     3.00   2.45708  1.0833
 3.10000    5.56     3.01   2.45787  1.0833
 3.05000    5.56     3.01   2.45793  1.0835
 3.00000    5.57     3.00   2.45903  1.0832
 2.95000    5.57     3.00   2.45957  1.0829
 2.90000    5.57     3.02   2.46063  1.0828
 2.85000    5.58     3.00   2.45890  1.0829
 2.80000    5.58     3.01   2.45744  1.0834
 2.75000    5.58     3.01   2.45935  1.0833
 2.70000    5.59     3.00   2.45944  1.0831
 2.65000    5.59     3.02   2.45889  1.0829
 2.60000    5.59     3.00   2.45965  1.0828
 2.55000    5.60     3.00   2.45867  1.0826
 2.50000    5.60     3.00   2.45862  1.0825
 2.45000    5.60     3.00   2.45899  1.0826
 2.40000    5.60     3.01   2.45908  1.0825
 2.35000    5.60     3.01   2.45980  1.0825
 2.30000    5.61     3.00   2.46019  1.0825
 2.25000    5.61     3.00   2.45958  1.0824
 2.20000    5.61     3.00   2.45828  1.0823
 2.15000    5.61     2.99   2.45748  1.0821
 2.10000    5.61     3.00   2.45672  1.0818
 2.05000    5.62     3.00   2.45600  1.0818
 2.00000    5.62     3.02   2.45499  1.0817
 1.95000    5.63     2.99   2.45316  1.0816
 1.90000    5.64     3.00   2.44943  1.0815
 1.85000    5.64     3.00   2.44640  1.0813
 1.80000    5.64     3.00   2.44077  1.0810
 1.75000    5.65     3.01   2.43280  1.0808
 1.70000    5.66     3.00   2.42251  1.0808
 1.65000    5.66     3.01   2.40954  1.0810
 1.60000    5.66     3.00   2.39360  1.0813
 1.55000    5.67     3.00   2.37791  1.0821
 1.50000    5.68     3.00   2.36742  1.0834
 1.45000    5.68     3.01   2.36871  1.0849
 1.40000    5.68     3.00   2.37753  1.0861
 1.35000    5.68     3.01   2.38742  1.0866
 1.30000    5.68     2.99   2.39682  1.0872
 1.25000    5.67     3.01   2.40495  1.0871
 1.20000    5.67     3.02   2.41072  1.0872
 1.15000    5.66     2.99   2.41607  1.0873
 1.10000    5.65     3.00   2.41976  1.0875
 1.05000    5.64     2.98   2.42200  1.0877
 1.00000    5.63     3.00   2.42463  1.0880
 0.95000    5.62     3.00   2.42601  1.0881
 0.90000    5.61     3.01   2.42788  1.0883
 0.85000    5.60     3.00   2.43005  1.0884
 0.80000    5.59     3.00   2.43167  1.0886
 0.75000    5.57     3.00   2.43316  1.0889
 0.70000    5.56     3.00   2.43435  1.0889
 0.65000    5.54     2.99   2.43594  1.0891
 0.60000    5.53     2.99   2.43710  1.0892
 0.55000    5.51     3.01   2.43904  1.0895
 0.50000    5.50     2.99   2.43896  1.0896
 0.45000    5.48     3.01   2.43954  1.0900
 0.40000    5.47     2.99   2.44003  1.0903
 0.35000    5.46     2.99   2.44023  1.0904
 0.30000    5.45     2.99   2.44022  1.0907
 0.25000    5.44     2.99   2.44151  1.0910
 0.20000    5.43     3.00   2.44246  1.0914
 0.15000    5.42     3.00   2.44210  1.0916
 0.10000    5.42     3.00   2.44187  1.0918
 0.05000    5.41     2.99   2.44139  1.0923
-0.00000    5.39     2.99   2.44177  1.0927
