 Field[T] Tsmpl[K] Tcntr[K] Signal
 7.00000    1.88     1.92   0.87400
 6.95000    1.88     1.92   0.87170
 6.90000    1.88     1.92   0.87050
 6.85000    1.88     1.92   0.87140
 6.80000    1.88     1.92   0.87070
 6.75000    1.88     1.92   0.86480
 6.70000    1.88     1.92   0.87280
 6.65000    1.88     1.92   0.86890
 6.60000    1.88     1.92   0.86580
 6.55000    1.88     1.92   0.86840
 6.50000    1.88     1.92   0.86620
 6.45000    1.88     1.92   0.86730
 6.40000    1.87     1.92   0.86350
 6.35000    1.87     1.92   0.86510
 6.30000    1.87     1.92   0.86700
 6.25000    1.87     1.91   0.86130
 6.20000    1.87     1.91   0.86330
 6.15000    1.87     1.91   0.86380
 6.10000    1.87     1.91   0.85690
 6.05000    1.87     1.91   0.86610
 6.00000    1.87     1.91   0.86130
 5.95000    1.87     1.91   0.86230
 5.90000    1.87     1.91   0.86060
 5.85000    1.87     1.91   0.86040
 5.80000    1.87     1.91   0.86370
 5.75000    1.87     1.91   0.86460
 5.70000    1.87     1.91   0.86050
 5.65000    1.87     1.91   0.86230
 5.60000    1.87     1.91   0.86200
 5.55000    1.87     1.91   0.86430
 5.50000    1.87     1.91   0.86160
 5.45000    1.87     1.91   0.86200
 5.40000    1.87     1.91   0.86270
 5.35000    1.87     1.91   0.86050
 5.30000    1.87     1.91   0.86550
 5.25000    1.87     1.91   0.86800
 5.20000    1.87     1.91   0.86590
 5.15000    1.87     1.91   0.86190
 5.10000    1.87     1.91   0.86480
 5.05000    1.87     1.90   0.86580
 5.00000    1.87     1.90   0.86910
 4.95000    1.87     1.90   0.86840
 4.90000    1.87     1.90   0.86590
 4.85000    1.87     1.90   0.86740
 4.80000    1.87     1.90   0.86420
 4.75000    1.87     1.90   0.86360
 4.70000    1.87     1.90   0.86230
 4.65000    1.87     1.90   0.86120
 4.60000    1.87     1.90   0.86050
 4.55000    1.87     1.90   0.86370
 4.50000    1.87     1.90   0.86320
 4.45000    1.87     1.90   0.86490
 4.40000    1.87     1.90   0.86920
 4.35000    1.87     1.90   0.86980
 4.30000    1.87     1.90   0.87050
 4.25000    1.87     1.90   0.86940
 4.20000    1.86     1.90   0.87000
 4.15000    1.86     1.90   0.86670
 4.10000    1.86     1.90   0.86760
 4.05000    1.86     1.90   0.86700
 4.00000    1.86     1.90   0.86550
 3.95000    1.86     1.90   0.86450
 3.90000    1.86     1.90   0.86500
 3.85000    1.86     1.90   0.86640
 3.80000    1.86     1.90   0.86440
 3.75000    1.86     1.90   0.85930
 3.70000    1.86     1.90   0.86240
 3.65000    1.86     1.90   0.85850
 3.60000    1.86     1.90   0.85980
 3.55000    1.86     1.90   0.85590
 3.50000    1.86     1.89   0.85110
 3.45000    1.86     1.89   0.85460
 3.40000    1.86     1.89   0.84560
 3.35000    1.86     1.89   0.84800
 3.30000    1.86     1.89   0.84540
 3.25000    1.86     1.89   0.84550
 3.20000    1.86     1.89   0.83960
 3.15000    1.86     1.89   0.83800
 3.10000    1.86     1.89   0.83720
 3.05000    1.86     1.89   0.82840
 3.00000    1.86     1.89   0.82900
 2.95000    1.86     1.89   0.82710
 2.90000    1.86     1.89   0.82430
 2.85000    1.86     1.89   0.82580
 2.80000    1.86     1.89   0.82520
 2.75000    1.86     1.89   0.82910
 2.70000    1.86     1.89   0.83280
 2.65000    1.86     1.89   0.83350
 2.60000    1.86     1.89   0.83720
 2.55000    1.86     1.89   0.85050
 2.50000    1.86     1.89   0.86170
 2.45000    1.86     1.88   0.87400
 2.40000    1.86     1.88   0.88340
 2.35000    1.86     1.88   0.89090
 2.30000    1.86     1.88   0.89900
 2.25000    1.86     1.88   0.90060
 2.20000    1.86     1.88   0.89890
 2.15000    1.86     1.88   0.89330
 2.10000    1.86     1.88   0.87980
 2.05000    1.86     1.88   0.86360
 2.00000    1.86     1.88   0.85150
 1.95000    1.85     1.88   0.84210
 1.90000    1.85     1.88   0.83830
 1.85000    1.85     1.88   0.83460
 1.80000    1.85     1.88   0.83750
 1.75000    1.85     1.88   0.84060
 1.70000    1.85     1.88   0.85140
 1.65000    1.85     1.88   0.86340
 1.60000    1.85     1.88   0.87520
 1.55000    1.85     1.88   0.88530
 1.50000    1.85     1.88   0.88150
 1.45000    1.85     1.88   0.88030
 1.40000    1.85     1.88   0.86690
 1.35000    1.85     1.88   0.85010
 1.30000    1.85     1.88   0.83980
 1.25000    1.85     1.88   0.83960
 1.20000    1.85     1.88   0.83870
 1.15000    0.00     1.88   0.83020
 1.10000    1.85     1.88   0.83020
 1.05000    1.85     1.87   0.83060
 1.00000    1.85     1.87   0.83570
 0.95000    1.85     1.87   0.84070
 0.90000    1.85     1.87   0.84170
 0.85000    1.85     1.87   0.84940
 0.80000    1.85     1.87   0.85140
 0.75000    1.85     1.87   0.86150
 0.70000    1.85     1.87   0.86470
 0.65000    1.85     1.87   0.87320
 0.60000    1.85     1.87   0.88690
 0.55000    1.85     1.87   0.88260
 0.50000    1.85     1.87   0.89150
 0.45000    1.85     1.87   0.89230
 0.40000    1.85     1.87   0.89870
 0.35000    1.85     1.87   0.90220
 0.30000    1.85     1.87   0.90380
 0.25000    1.85     1.87   0.90010
 0.20000    1.85     1.87   0.90370
 0.15000    1.85     1.87   0.90270
 0.10000    1.85     1.87   0.89660
 0.05000    1.85     1.87   0.90080
-0.00000    1.85     1.87   0.89750
