 Field[T] Tsmpl[K] Tcntr[K] Signal
 0.00000    1.85     1.87   1.23810
 0.05000    1.84     1.87   1.23850
 0.10000    1.84     1.87   1.23510
 0.15000    1.84     1.87   1.24100
 0.20000    1.84     1.87   1.23950
 0.25000    1.84     1.87   1.23980
 0.30000    1.84     1.87   1.24080
 0.35000    1.84     1.87   1.23050
 0.40000    1.84     1.87   1.23060
 0.45000    1.84     1.87   1.22430
 0.50000    1.84     1.87   1.21630
 0.55000    1.84     1.86   1.20570
 0.60000    1.84     1.86   1.19660
 0.65000    1.84     1.86   1.18160
 0.70000    1.84     1.86   1.16960
 0.75000    1.84     1.86   1.16580
 0.80000    1.84     1.86   1.16090
 0.85000    1.84     1.86   1.16090
 0.90000    1.84     1.86   1.16110
 0.95000    1.84     1.86   1.16620
 1.00000    1.84     1.86   1.17650
 1.05000    1.84     1.86   1.18150
 1.10000    1.84     1.86   1.18350
 1.15000    1.84     1.86   1.18690
 1.20000    1.84     1.86   1.19100
 1.25000    1.84     1.86   1.18670
 1.30000    1.84     1.86   1.17790
 1.35000    1.84     1.86   1.16860
 1.40000    1.84     1.86   1.14360
 1.45000    1.84     1.86   1.11300
 1.50000    1.84     1.86   1.08010
 1.55000    1.84     1.86   1.05540
 1.60000    1.84     1.86   1.04750
 1.65000    1.84     1.86   1.03970
 1.70000    1.84     1.86   1.02440
 1.75000    1.84     1.86   1.02670
 1.80000    1.84     1.86   1.04220
 1.85000    1.84     1.86   1.04880
 1.90000    1.84     1.86   1.02620
 1.95000    1.84     1.86   0.99610
 2.00000    1.84     1.86   0.98410
 2.05000    1.84     1.87   0.96670
 2.10000    1.84     1.87   0.93380
 2.15000    1.84     1.87   0.90670
 2.20000    1.84     1.87   0.87920
 2.25000    1.84     1.87   0.85770
 2.30000    1.84     1.87   0.85130
 2.35000    1.84     1.87   0.84900
 2.40000    1.84     1.87   0.85650
 2.45000    1.84     1.87   0.86020
 2.50000    1.84     1.87   0.86260
 2.55000    1.84     1.87   0.85750
 2.60000    1.84     1.87   0.85600
 2.65000    1.84     1.87   0.84620
 2.70000    1.84     1.87   0.84170
 2.75000    1.84     1.87   0.83300
 2.80000    1.84     1.87   0.82440
 2.85000    1.84     1.87   0.82200
 2.90000    1.84     1.87   0.81430
 2.95000    1.85     1.87   0.81260
 3.00000    1.85     1.88   0.81000
 3.05000    1.85     1.88   0.81070
 3.10000    1.85     1.88   0.81330
 3.15000    1.85     1.88   0.81680
 3.20000    1.85     1.88   0.81840
 3.25000    1.85     1.88   0.82070
 3.30000    1.85     1.88   0.82250
 3.35000    1.85     1.88   0.82990
 3.40000    1.85     1.88   0.83530
 3.45000    1.85     1.88   0.83830
 3.50000    1.85     1.88   0.84050
 3.55000    1.85     1.88   0.84760
 3.60000    1.85     1.88   0.85400
 3.65000    1.85     1.88   0.85850
 3.70000    1.85     1.88   0.86070
 3.75000    1.85     1.88   0.86650
 3.80000    1.85     1.88   0.87150
 3.85000    1.85     1.88   0.87600
 3.90000    1.85     1.88   0.87860
 3.95000    1.85     1.89   0.88110
 4.00000    1.85     1.89   0.88660
 4.05000    1.85     1.89   0.89060
 4.10000    1.85     1.89   0.89220
 4.15000    1.85     1.89   0.89380
 4.20000    1.85     1.89   0.89760
 4.25000    1.86     1.89   0.89690
 4.30000    1.86     1.89   0.90050
 4.35000    1.86     1.89   0.90130
 4.40000    1.86     1.89   0.90430
 4.45000    1.86     1.89   0.90490
 4.50000    1.86     1.89   0.90480
 4.55000    1.86     1.89   0.90330
 4.60000    1.86     1.89   0.90400
 4.65000    1.86     1.89   0.90340
 4.70000    1.86     1.90   0.90700
 4.75000    1.86     1.90   0.90530
 4.80000    1.86     1.90   0.90370
 4.85000    1.86     1.90   0.90390
 4.90000    1.86     1.90   0.90460
 4.95000    1.86     1.90   0.90300
 5.00000    1.86     1.90   0.90130
 5.05000    1.86     1.90   0.90370
 5.10000    1.86     1.90   0.90260
 5.15000    1.86     1.90   0.90370
 5.20000    1.86     1.90   0.90160
 5.25000    1.86     1.90   0.90830
 5.30000    1.86     1.90   0.90660
 5.35000    1.87     1.90   0.90550
 5.40000    1.87     1.90   0.90930
 5.45000    1.87     1.90   0.91050
 5.50000    1.87     1.90   0.91120
 5.55000    1.87     1.90   0.91660
 5.60000    1.87     1.90   0.91850
 5.65000    1.87     1.91   0.91900
 5.70000    1.87     1.91   0.92340
 5.75000    1.87     1.91   0.92360
 5.80000    1.87     1.91   0.92890
 5.85000    1.87     1.91   0.92990
 5.90000    1.87     1.91   0.93130
 5.95000    1.87     1.91   0.93640
 6.00000    1.87     1.91   0.93980
 6.05000    1.87     1.91   0.94150
 6.10000    1.87     1.91   0.94960
 6.15000    1.87     1.91   0.95090
 6.20000    1.87     1.91   0.95060
 6.25000    1.87     1.91   0.95420
 6.30000    1.87     1.91   0.96410
 6.35000    1.87     1.91   0.96610
 6.40000    1.87     1.91   0.96740
 6.45000    1.87     1.91   0.97270
 6.50000    1.87     1.92   0.97750
 6.55000    1.88     1.92   0.97820
 6.60000    1.88     1.92   0.98480
 6.65000    1.88     1.92   0.98830
 6.70000    1.88     1.92   0.99310
 6.75000    1.88     1.92   0.99710
 6.80000    1.88     1.92   0.99690
 6.85000    1.88     1.92   1.00430
 6.90000    1.88     1.92   1.00830
 6.95000    1.88     1.92   1.01330
 7.00000    1.88     1.92   1.01620
