 Field[T] Tsmpl[K] Tcntr[K] Signal
 0.00000    1.83     1.86   1.80350
 0.05000    1.83     1.86   1.80560
 0.10000    1.83     1.86   1.80570
 0.15000    1.83     1.86   1.80600
 0.20000    1.83     1.86   1.80620
 0.25000    1.83     1.86   1.80380
 0.30000    1.83     1.86   1.80630
 0.35000    1.84     1.86   1.80560
 0.40000    1.84     1.86   1.80280
 0.45000    1.84     1.86   1.80560
 0.50000    1.84     1.86   1.80490
 0.55000    1.84     1.86   1.80620
 0.60000    1.84     1.86   1.80370
 0.65000    1.84     1.86   1.80570
 0.70000    1.84     1.86   1.80480
 0.75000    1.84     1.86   1.80790
 0.80000    1.84     1.86   1.80870
 0.85000    1.84     1.86   1.81120
 0.90000    1.84     1.86   1.80910
 0.95000    1.84     1.86   1.80530
 1.00000    1.84     1.86   1.80500
 1.05000    1.84     1.86   1.80620
 1.10000    1.84     1.86   1.80240
 1.15000    1.84     1.86   1.80120
 1.20000    1.84     1.86   1.80030
 1.25000    1.84     1.86   1.80010
 1.30000    1.84     1.86   1.80130
 1.35000    1.84     1.86   1.80110
 1.40000    1.84     1.86   1.80200
 1.45000    1.84     1.86   1.80000
 1.50000    1.84     1.86   1.80090
 1.55000    1.84     1.86   1.79850
 1.60000    1.84     1.86   1.79500
 1.65000    1.84     1.86   1.79590
 1.70000    1.84     1.87   1.79660
 1.75000    1.84     1.87   1.78980
 1.80000    1.84     1.87   1.78900
 1.85000    1.84     1.87   1.78240
 1.90000    1.84     1.87   1.77340
 1.95000    1.84     1.87   1.76420
 2.00000    1.84     1.87   1.75260
 2.05000    1.84     1.87   1.73800
 2.10000    1.84     1.87   1.72830
 2.15000    1.84     1.87   1.72890
 2.20000    1.84     1.87   1.73730
 2.25000    1.84     1.87   1.74360
 2.30000    1.84     1.87   1.75370
 2.35000    1.84     1.87   1.75910
 2.40000    1.84     1.87   1.76730
 2.45000    1.84     1.87   1.77340
 2.50000    1.84     1.88   1.77730
 2.55000    1.84     1.88   1.77880
 2.60000    1.84     1.88   1.78370
 2.65000    1.85     1.88   1.78680
 2.70000    1.85     1.88   1.78570
 2.75000    1.85     1.88   1.78920
 2.80000    1.85     1.88   1.79130
 2.85000    1.85     1.88   1.79240
 2.90000    1.85     1.88   1.79280
 2.95000    1.85     1.88   1.79360
 3.00000    1.85     1.88   1.79340
 3.05000    1.85     1.88   1.79670
 3.10000    1.85     1.88   1.79450
 3.15000    1.85     1.88   1.79940
 3.20000    1.85     1.88   1.79710
 3.25000    1.85     1.88   1.79880
 3.30000    1.85     1.88   1.80040
 3.35000    1.85     1.89   1.79810
 3.40000    1.85     1.89   1.80050
 3.45000    1.85     1.89   1.79950
 3.50000    1.85     1.89   1.79920
 3.55000    1.85     1.89   1.79890
 3.60000    1.85     1.89   1.80240
 3.65000    1.85     1.89   1.79980
 3.70000    1.85     1.89   1.80240
 3.75000    1.85     1.89   1.80250
 3.80000    1.85     1.89   1.80120
 3.85000    1.85     1.89   1.80050
 3.90000    1.85     1.89   1.80210
 3.95000    1.85     1.89   1.80580
 4.00000    1.85     1.89   1.80550
 4.05000    1.85     1.89   1.80510
 4.10000    1.85     1.89   1.80630
 4.15000    1.85     1.89   1.80680
 4.20000    1.86     1.89   1.80460
 4.25000    1.86     1.89   1.80760
 4.30000    1.86     1.89   1.80810
 4.35000    1.86     1.89   1.80920
 4.40000    1.86     1.89   1.80950
 4.45000    1.86     1.89   1.80810
 4.50000    1.86     1.90   1.80840
 4.55000    1.86     1.90   1.80680
 4.60000    1.86     1.90   1.80810
 4.65000    1.86     1.90   1.81100
 4.70000    1.86     1.90   1.80860
 4.75000    1.86     1.90   1.80990
 4.80000    1.86     1.90   1.81000
 4.85000    1.86     1.90   1.80790
 4.90000    1.86     1.90   1.80960
 4.95000    1.86     1.90   1.81160
 5.00000    1.86     1.90   1.81000
 5.00000    1.86     1.90   1.80820
 4.95000    1.86     1.90   1.80830
 4.90000    1.86     1.90   1.80730
 4.85000    1.86     1.90   1.80890
 4.80000    1.86     1.90   1.80830
 4.75000    1.86     1.90   1.80940
 4.70000    1.86     1.90   1.80960
 4.65000    1.86     1.90   1.80800
 4.60000    1.86     1.90   1.80690
 4.55000    1.86     1.90   1.80670
 4.50000    1.86     1.90   1.80960
 4.45000    1.86     1.90   1.80510
 4.40000    1.86     1.89   1.80630
 4.35000    1.86     1.89   1.80580
 4.30000    1.86     1.89   1.80650
 4.25000    1.86     1.89   1.80950
 4.20000    1.86     1.89   1.81210
 4.15000    1.86     1.89   1.81340
 4.10000    1.86     1.89   1.81160
 4.05000    1.86     1.89   1.81160
 4.00000    1.86     1.89   1.81170
 3.95000    1.86     1.89   1.81100
 3.90000    1.85     1.89   1.81110
 3.85000    1.85     1.89   1.81140
 3.80000    1.85     1.89   1.81130
 3.75000    1.85     1.89   1.81210
 3.70000    1.85     1.89   1.80980
 3.65000    1.85     1.89   1.81130
 3.60000    1.85     1.88   1.81170
 3.55000    1.85     1.88   1.81020
 3.50000    1.85     1.88   1.80870
 3.45000    1.85     1.88   1.80680
 3.40000    1.85     1.88   1.80820
 3.35000    1.85     1.88   1.80890
 3.30000    1.85     1.88   1.80880
 3.25000    1.85     1.88   1.81030
 3.20000    1.85     1.88   1.81110
 3.15000    1.85     1.88   1.81150
 3.10000    1.85     1.88   1.81050
 3.05000    1.85     1.88   1.80960
 3.00000    1.85     1.88   1.81000
 2.95000    1.85     1.88   1.80990
 2.90000    1.85     1.88   1.81090
 2.85000    1.85     1.88   1.80950
 2.80000    1.85     1.88   1.80880
 2.75000    1.85     1.88   1.80500
 2.70000    1.85     1.88   1.80670
 2.65000    1.85     1.88   1.80800
 2.60000    1.84     1.87   1.80930
 2.55000    1.84     1.87   1.80060
 2.50000    1.84     1.87   1.79510
 2.45000    1.84     1.87   1.79020
 2.40000    1.84     1.87   1.78360
 2.35000    1.84     1.87   1.77590
 2.30000    1.84     1.87   1.76610
 2.25000    1.84     1.87   1.75660
 2.20000    1.84     1.87   1.74450
 2.15000    1.84     1.87   1.73790
 2.10000    1.84     1.87   1.73600
 2.05000    1.84     1.87   1.74280
 2.00000    1.84     1.87   1.75490
 1.95000    1.84     1.87   1.76950
 1.90000    1.84     1.87   1.78040
 1.85000    1.84     1.87   1.78700
 1.80000    1.84     1.87   1.79170
 1.75000    1.84     1.87   1.79600
 1.70000    1.84     1.87   1.80050
 1.65000    1.84     1.87   1.80160
 1.60000    1.84     1.87   1.80150
 1.55000    1.84     1.87   1.80200
 1.50000    1.84     1.87   1.80450
 1.45000    1.84     1.87   1.80450
 1.40000    1.84     1.87   1.80590
 1.35000    1.84     1.87   1.80790
 1.30000    1.84     1.87   1.80800
 1.25000    1.84     1.87   1.80790
 1.20000    1.84     1.87   1.80850
 1.15000    1.84     1.86   1.80740
 1.10000    1.84     1.86   1.80910
 1.05000    1.84     1.86   1.80870
 1.00000    1.84     1.86   1.81120
 0.95000    1.84     1.86   1.81150
 0.90000    1.84     1.86   1.81460
 0.85000    1.84     1.86   1.81440
 0.80000    1.84     1.86   1.81200
 0.75000    1.84     1.86   1.80820
 0.70000    1.84     1.86   1.80810
 0.65000    1.84     1.86   1.80660
 0.60000    1.84     1.86   1.80630
 0.55000    1.84     1.86   1.80560
 0.50000    1.84     1.86   1.80450
 0.45000    1.84     1.86   1.80570
 0.40000    1.84     1.86   1.80370
 0.35000    1.84     1.86   1.80350
 0.30000    1.84     1.86   1.80430
 0.25000    1.84     1.86   1.80420
 0.20000    1.84     1.86   1.80290
 0.15000    1.84     1.86   1.80450
 0.10000    1.84     1.86   1.80430
 0.05000    1.84     1.86   1.80390
-0.00000    1.84     1.86   1.80280
