 Field[T] Tsmpl[K] Tcntr[K] Signal   Mirror[MM]
 0.00000    5.06     2.97   1.71645  1.0033
 0.05000    5.06     2.96   1.71602  1.0036
 0.10000    5.05     2.96   1.71524  1.0037
 0.15000    5.05     2.97   1.71529  1.0040
 0.20000    5.04     2.97   1.71470  1.0043
 0.25000    5.04     2.97   1.71430  1.0046
 0.30000    5.03     2.98   1.71301  1.0049
 0.35000    5.03     2.96   1.71271  1.0051
 0.40000    5.02     2.96   1.71239  1.0052
 0.45000    5.01     2.96   1.71215  1.0056
 0.50000    5.01     2.96   1.71137  1.0059
 0.55000    5.01     2.99   1.71037  1.0061
 0.60000    5.01     2.97   1.70971  1.0063
 0.65000    5.01     2.97   1.70881  1.0065
 0.70000    5.02     2.95   1.70825  1.0068
 0.75000    5.00     2.95   1.70678  1.0069
 0.80000    5.00     2.96   1.70583  1.0072
 0.85000    5.00     2.96   1.70449  1.0074
 0.90000    5.00     2.95   1.70384  1.0077
 0.95000    4.99     2.94   1.70156  1.0079
 1.00000    4.99     2.95   1.69969  1.0082
 1.05000    4.98     2.94   1.69728  1.0080
 1.10000    4.97     2.95   1.69474  1.0080
 1.15000    4.96     2.93   1.69305  1.0077
 1.20000    4.95     2.94   1.69166  1.0075
 1.25000    4.95     2.94   1.69077  1.0074
 1.30000    4.94     2.94   1.69106  1.0070
 1.35000    4.94     2.94   1.69207  1.0071
 1.40000    4.93     2.94   1.69271  1.0070
 1.45000    4.93     2.94   1.69387  1.0071
 1.50000    4.93     2.95   1.69417  1.0068
 1.55000    4.94     2.95   1.69554  1.0068
 1.60000    4.94     2.96   1.69588  1.0069
 1.65000    4.95     2.97   1.69693  1.0070
 1.70000    4.96     2.95   1.69702  1.0071
 1.75000    4.96     2.96   1.69801  1.0070
 1.80000    4.96     2.99   1.69823  1.0071
 1.85000    4.97     2.96   1.69799  1.0072
 1.90000    4.97     2.97   1.69812  1.0072
 1.95000    4.97     2.99   1.69850  1.0073
 2.00000    4.97     2.98   1.69837  1.0074
 2.05000    4.97     2.98   1.69803  1.0075
 2.10000    4.96     2.98   1.69816  1.0074
 2.15000    4.95     2.99   1.69806  1.0074
 2.20000    4.95     2.99   1.69786  1.0075
 2.25000    4.94     3.01   1.69739  1.0074
 2.30000    4.93     2.99   1.69675  1.0075
 2.35000    4.92     2.99   1.69668  1.0074
 2.40000    4.91     2.99   1.69674  1.0074
 2.45000    4.90     3.01   1.69637  1.0076
 2.50000    4.89     2.98   1.69595  1.0078
 2.55000    4.89     2.99   1.69569  1.0077
 2.60000    4.87     3.00   1.69559  1.0075
 2.65000    4.87     3.02   1.69545  1.0077
 2.70000    4.86     3.00   1.69461  1.0076
 2.75000    4.86     2.99   1.69523  1.0077
 2.80000    4.86     3.02   1.69458  1.0076
 2.85000    4.86     3.01   1.69498  1.0075
 2.90000    4.86     3.00   1.69397  1.0074
 2.95000    4.86     3.01   1.69440  1.0075
 3.00000    4.87     3.03   1.69383  1.0076
 3.05000    4.87     3.01   1.69370  1.0077
 3.10000    4.87     3.02   1.69350  1.0076
 3.15000    4.88     3.03   1.69354  1.0077
 3.20000    4.89     3.02   1.69238  1.0076
 3.25000    4.91     3.03   1.69221  1.0076
 3.30000    4.93     3.05   1.69227  1.0077
 3.35000    4.95     3.04   1.69233  1.0076
 3.40000    4.98     3.04   1.69178  1.0076
 3.45000    4.99     3.04   1.69115  1.0076
 3.50000    5.01     3.05   1.69104  1.0077
 3.55000    5.03     3.06   1.69062  1.0079
 3.60000    5.04     3.05   1.69067  1.0078
 3.65000    0.00     0.00   1.69063  1.0077
 3.70000    5.06     3.05   1.68990  1.0077
 3.75000    5.06     3.05   1.68986  1.0075
 3.80000    5.07     3.05   1.68931  1.0076
 3.85000    5.08     3.04   1.68885  1.0075
 3.90000    5.08     3.05   1.68905  1.0077
 3.95000    5.09     3.06   1.68903  1.0075
 4.00000    5.10     3.05   1.68876  1.0075
 4.00000    5.11     3.04   1.68886  1.0076
 3.95000    5.11     3.04   1.68923  1.0077
 3.90000    5.13     3.06   1.68922  1.0077
 3.85000    5.16     3.05   1.69002  1.0077
 3.80000    5.18     3.06   1.69071  1.0077
 3.75000    5.21     3.09   1.69093  1.0077
 3.70000    5.24     3.08   1.69133  1.0076
 3.65000    5.27     3.08   1.69187  1.0077
 3.60000    5.30     3.08   1.69208  1.0076
 3.55000    5.33     3.10   1.69236  1.0076
 3.50000    5.37     3.09   1.69226  1.0076
 3.45000    5.39     3.09   1.69319  1.0076
 3.40000    5.40     3.08   1.69373  1.0076
 3.35000    5.42     3.09   1.69314  1.0077
 3.30000    5.44     3.10   1.69409  1.0078
 3.25000    5.46     3.09   1.69435  1.0078
 3.20000    5.47     3.08   1.69383  1.0082
 3.15000    5.48     3.09   1.69493  1.0078
 3.10000    5.49     3.06   1.69524  1.0080
 3.05000    5.50     3.08   1.69563  1.0081
 3.00000    5.51     3.09   1.69556  1.0080
 2.95000    5.52     3.06   1.69622  1.0082
 2.90000    5.52     3.05   1.69631  1.0080
 2.85000    5.52     3.05   1.69609  1.0079
 2.80000    5.53     3.04   1.69667  1.0077
 2.75000    5.53     3.06   1.69702  1.0077
 2.70000    5.53     3.04   1.69781  1.0076
 2.65000    5.54     3.04   1.69804  1.0076
 2.60000    5.54     3.03   1.69752  1.0074
 2.55000    5.54     3.04   1.69801  1.0074
 2.50000    5.55     3.07   1.69875  1.0074
 2.45000    5.57     3.04   1.69847  1.0075
 2.40000    5.58     3.04   1.69868  1.0079
 2.35000    5.58     3.04   1.69910  1.0083
 2.30000    5.59     3.04   1.69916  1.0083
 2.25000    5.60     3.04   1.69928  1.0077
 2.20000    5.60     3.03   1.69930  1.0075
 2.15000    5.61     3.03   1.69946  1.0077
 2.10000    5.61     3.02   1.70044  1.0083
 2.05000    5.61     3.03   1.69961  1.0081
 2.00000    5.62     3.02   1.70042  1.0078
 1.95000    5.62     3.02   1.70027  1.0074
 1.90000    5.62     3.01   1.69974  1.0076
 1.85000    5.62     3.01   1.70063  1.0076
 1.80000    5.62     3.01   1.69977  1.0075
 1.75000    5.62     3.03   1.69957  1.0074
 1.70000    5.62     3.00   1.69937  1.0072
 1.65000    5.61     3.01   1.69906  1.0069
 1.60000    5.61     3.00   1.69845  1.0068
 1.55000    5.60     3.01   1.69760  1.0069
 1.50000    5.59     3.01   1.69693  1.0070
 1.45000    5.58     3.01   1.69619  1.0069
 1.40000    5.57     3.00   1.69542  1.0067
 1.35000    5.56     3.01   1.69460  1.0066
 1.30000    5.56     3.03   1.69355  1.0068
 1.25000    5.55     3.00   1.69259  1.0069
 1.20000    5.54     3.00   1.69320  1.0073
 1.15000    5.53     2.99   1.69438  1.0074
 1.10000    5.52     3.00   1.69623  1.0074
 1.05000    5.52     2.99   1.69909  1.0073
 1.00000    5.50     3.01   1.70116  1.0074
 0.95000    5.50     3.01   1.70310  1.0071
 0.90000    5.49     3.00   1.70418  1.0069
 0.85000    5.48     3.00   1.70513  1.0070
 0.80000    5.47     3.00   1.70731  1.0068
 0.75000    5.46     3.01   1.70685  1.0067
 0.70000    5.45     3.02   1.70880  1.0064
 0.65000    5.44     3.00   1.71023  1.0061
 0.60000    5.43     3.00   1.71096  1.0059
 0.55000    5.42     2.99   1.71190  1.0056
 0.50000    5.42     3.00   1.71253  1.0055
 0.45000    5.41     3.00   1.71324  1.0054
 0.40000    5.40     2.99   1.71329  1.0050
 0.35000    5.39     2.99   1.71451  1.0049
 0.30000    5.39     3.00   1.71468  1.0048
 0.25000    5.38     3.01   1.71577  1.0046
 0.20000    5.38     2.98   1.71677  1.0044
 0.15000    5.38     3.01   1.71702  1.0039
 0.10000    5.38     3.00   1.71764  1.0037
 0.05000    5.38     2.99   1.71803  1.0033
-0.00000    5.38     2.99   1.71887  1.0031
