 Field[T] Tsmpl[K] Tcntr[K] Signal   Mirror[MM]
 0.00000    1.79     1.79   0.03151  -23.8849
 0.05000    1.79     1.79   0.03148  -23.8850
 0.10000    1.79     1.79   0.03141  -23.8852
 0.15000    1.79     1.79   0.03137  -23.8851
 0.20000    1.79     1.79   0.03128  -23.8854
 0.25000    1.79     1.79   0.03111  -23.8855
 0.30000    1.79     1.79   0.03090  -23.8857
 0.35000    1.79     1.79   0.03065  -23.8861
 0.40000    1.79     1.79   0.03033  -23.8860
 0.45000    1.79     1.79   0.02980  -23.8863
 0.50000    1.79     1.79   0.02914  -23.8870
 0.55000    1.79     1.79   0.02824  -23.8894
 0.60000    1.79     1.79   0.02694  -23.8979
 0.65000    1.79     1.79   0.02660  -23.9148
 0.70000    1.79     1.79   0.02677  -23.9281
 0.75000    1.79     1.79   0.02722  -23.9385
 0.80000    1.79     1.79   0.02779  -23.9472
 0.85000    1.79     1.79   0.02841  -23.9544
 0.90000    1.79     1.79   0.02918  -23.9598
 0.95000    1.79     1.79   0.03001  -23.9638
 1.00000    1.79     1.79   0.03088  -23.9662
 1.05000    1.79     1.79   0.03163  -23.9665
 1.10000    1.79     1.79   0.03229  -23.9651
 1.15000    1.79     1.79   0.03275  -23.9639
 1.20000    1.79     1.79   0.03309  -23.9628
 1.25000    1.79     1.79   0.03335  -23.9618
 1.30000    1.79     1.79   0.03365  -23.9610
 1.35000    1.79     1.79   0.03389  -23.9604
 1.40000    1.79     1.79   0.03406  -23.9596
 1.45000    1.79     1.79   0.03422  -23.9592
 1.50000    1.79     1.79   0.03441  -23.9585
 1.55000    1.79     1.79   0.03456  -23.9580
 1.60000    1.79     1.79   0.03468  -23.9572
 1.65000    1.79     1.79   0.03479  -23.9569
 1.70000    1.79     1.79   0.03493  -23.9563
 1.75000    1.79     1.79   0.03504  -23.9558
 1.80000    1.79     1.79   0.03511  -23.9554
 1.85000    1.79     1.79   0.03518  -23.9548
 1.90000    1.79     1.79   0.03530  -23.9541
 1.95000    1.79     1.79   0.03536  -23.9537
 2.00000    1.79     1.79   0.03537  -23.9538
 2.05000    1.79     1.79   0.03541  -23.9532
 2.10000    1.79     1.79   0.03548  -23.9528
 2.15000    1.79     1.79   0.03550  -23.9524
 2.20000    1.79     1.79   0.03549  -23.9521
 2.25000    1.79     1.79   0.03554  -23.9514
 2.30000    1.79     1.79   0.03560  -23.9511
 2.35000    1.79     1.79   0.03557  -23.9508
 2.40000    1.79     1.79   0.03556  -23.9504
 2.45000    1.79     1.79   0.03558  -23.9500
 2.50000    1.79     1.79   0.03564  -23.9500
 2.55000    1.79     1.79   0.03561  -23.9496
 2.60000    1.79     1.79   0.03561  -23.9497
 2.65000    1.79     1.79   0.03565  -23.9494
 2.70000    1.79     1.79   0.03565  -23.9489
 2.75000    1.79     1.79   0.03564  -23.9489
 2.80000    1.79     1.79   0.03564  -23.9487
 2.85000    1.79     1.79   0.03564  -23.9484
 2.90000    1.79     1.79   0.03563  -23.9485
 2.95000    1.79     1.79   0.03562  -23.9480
 3.00000    1.79     1.79   0.03560  -23.9481
 3.05000    1.79     1.79   0.03559  -23.9481
 3.10000    1.79     1.79   0.03559  -23.9483
 3.15000    1.79     1.79   0.03554  -23.9479
 3.20000    1.79     1.79   0.03555  -23.9477
 3.25000    1.79     1.79   0.03557  -23.9477
 3.30000    1.79     1.79   0.03557  -23.9478
 3.35000    1.79     1.79   0.03553  -23.9478
 3.40000    1.79     1.79   0.03549  -23.9478
 3.45000    1.79     1.79   0.03554  -23.9479
 3.50000    1.79     1.79   0.03550  -23.9479
 3.55000    1.79     1.79   0.03547  -23.9479
 3.60000    1.79     1.79   0.03547  -23.9478
 3.65000    1.79     1.79   0.03548  -23.9475
 3.70000    1.79     1.79   0.03545  -23.9472
 3.75000    1.79     1.79   0.03544  -23.9475
 3.80000    1.79     1.79   0.03546  -23.9474
 3.85000    1.79     1.79   0.03548  -23.9473
 3.90000    1.79     1.79   0.03543  -23.9472
 3.95000    1.79     1.79   0.03543  -23.9470
 4.00000    1.79     1.79   0.03547  -23.9470
 4.00000    1.79     1.79   0.03546  -23.9470
 3.95000    1.79     1.79   0.03544  -23.9471
 3.90000    1.79     1.79   0.03543  -23.9470
 3.85000    1.79     1.79   0.03543  -23.9472
 3.80000    1.79     1.79   0.03546  -23.9475
 3.75000    1.79     1.79   0.03544  -23.9475
 3.70000    1.79     1.79   0.03542  -23.9475
 3.65000    1.79     1.79   0.03544  -23.9477
 3.60000    1.79     1.79   0.03543  -23.9478
 3.55000    1.79     1.79   0.03539  -23.9480
 3.50000    1.79     1.79   0.03538  -23.9479
 3.45000    1.79     1.79   0.03541  -23.9479
 3.40000    1.79     1.79   0.03541  -23.9480
 3.35000    1.79     1.79   0.03537  -23.9481
 3.30000    1.79     1.79   0.03539  -23.9483
 3.25000    1.79     1.79   0.03542  -23.9486
 3.20000    1.79     1.79   0.03540  -23.9489
 3.15000    1.79     1.79   0.03537  -23.9487
 3.10000    1.79     1.79   0.03537  -23.9487
 3.05000    1.79     1.79   0.03540  -23.9488
 3.00000    1.79     1.79   0.03537  -23.9489
 2.95000    1.79     1.79   0.03535  -23.9493
 2.90000    1.79     1.79   0.03535  -23.9495
 2.85000    1.79     1.79   0.03535  -23.9494
 2.80000    1.79     1.79   0.03532  -23.9497
 2.75000    1.79     1.79   0.03532  -23.9499
 2.70000    1.79     1.79   0.03532  -23.9503
 2.65000    1.79     1.79   0.03532  -23.9503
 2.60000    1.79     1.79   0.03529  -23.9506
 2.55000    1.79     1.79   0.03527  -23.9510
 2.50000    1.79     1.79   0.03529  -23.9511
 2.45000    1.79     1.79   0.03530  -23.9514
 2.40000    1.79     1.79   0.03525  -23.9518
 2.35000    1.79     1.79   0.03520  -23.9522
 2.30000    1.79     1.79   0.03522  -23.9525
 2.25000    1.79     1.79   0.03519  -23.9530
 2.20000    1.79     1.79   0.03510  -23.9538
 2.15000    1.79     1.79   0.03507  -23.9543
 2.10000    1.79     1.79   0.03507  -23.9545
 2.05000    1.79     1.79   0.03500  -23.9546
 2.00000    1.79     1.79   0.03490  -23.9552
 1.95000    1.79     1.79   0.03482  -23.9558
 1.90000    1.79     1.79   0.03479  -23.9564
 1.85000    1.79     1.79   0.03468  -23.9568
 1.80000    1.79     1.79   0.03458  -23.9576
 1.75000    1.79     1.79   0.03448  -23.9578
 1.70000    1.79     1.79   0.03442  -23.9584
 1.65000    1.79     1.79   0.03427  -23.9590
 1.60000    1.79     1.79   0.03416  -23.9597
 1.55000    1.79     1.79   0.03400  -23.9600
 1.50000    1.79     1.79   0.03387  -23.9605
 1.45000    1.79     1.79   0.03370  -23.9610
 1.40000    1.79     1.79   0.03348  -23.9619
 1.35000    1.79     1.79   0.03328  -23.9623
 1.30000    1.79     1.79   0.03311  -23.9633
 1.25000    1.79     1.79   0.03281  -23.9639
 1.20000    1.79     1.79   0.03255  -23.9651
 1.15000    1.79     1.79   0.03218  -23.9663
 1.10000    1.79     1.79   0.03179  -23.9674
 1.05000    1.79     1.79   0.03118  -23.9687
 1.00000    1.79     1.79   0.03035  -23.9686
 0.95000    1.79     1.79   0.02954  -23.9670
 0.90000    1.79     1.79   0.02874  -23.9632
 0.85000    1.79     1.79   0.02798  -23.9577
 0.80000    1.79     1.79   0.02728  -23.9508
 0.75000    1.79     1.79   0.02671  -23.9422
 0.70000    1.79     1.79   0.02628  -23.9314
 0.65000    1.79     1.79   0.02605  -23.9190
 0.60000    1.79     1.79   0.02615  -23.9024
 0.55000    1.79     1.79   0.02744  -23.8916
 0.50000    1.79     1.79   0.02843  -23.8891
 0.45000    1.79     1.79   0.02908  -23.8883
 0.40000    1.79     1.79   0.02957  -23.8879
 0.35000    1.79     1.79   0.02994  -23.8876
 0.30000    1.79     1.79   0.03021  -23.8875
 0.25000    1.79     1.79   0.03040  -23.8873
 0.20000    1.79     1.79   0.03056  -23.8871
 0.15000    1.79     1.79   0.03067  -23.8871
 0.10000    1.79     1.79   0.03080  -23.8869
 0.05000    1.79     1.79   0.03078  -23.8865
 -0.00000    1.79     1.79   0.03082  -23.8868
