 Field[T] Tsmpl[K] Tcntr[K] Signal   Mirror[MM]
 0.00000    1.72     1.72   0.05806  -23.4987
 0.05000    1.72     1.72   0.05881  -23.5220
 0.10000    1.72     1.72   0.05978  -23.5388
 0.15000    1.72     1.72   0.06166  -23.5457
 0.20000    1.72     1.72   0.06416  -23.5527
 0.25000    1.72     1.72   0.06598  -23.5483
 0.30000    1.72     1.72   0.06840  -23.5428
 0.35000    1.72     1.72   0.07055  -23.5271
 0.40000    1.72     1.72   0.07301  -23.5086
 0.45000    1.72     1.72   0.07342  -23.4863
 0.50000    1.72     1.72   0.07418  -23.4602
 0.55000    1.72     1.72   0.07426  -23.4383
 0.60000    1.72     1.72   0.07435  -23.4252
 0.65000    1.72     1.72   0.07391  -23.4109
 0.70000    1.72     1.72   0.07382  -23.3976
 0.75000    1.72     1.72   0.07390  -23.3857
 0.80000    1.72     1.72   0.07475  -23.3795
 0.85000    1.72     1.72   0.07366  -23.3770
 0.90000    1.72     1.72   0.07288  -23.3607
 0.95000    1.72     1.72   0.07291  -23.3562
 1.00000    1.72     1.72   0.07295  -23.3524
 1.05000    1.72     1.72   0.07230  -23.3461
 1.10000    1.72     1.72   0.07207  -23.3439
 1.15000    1.72     1.72   0.07185  -23.3413
 1.20000    1.72     1.72   0.07172  -23.3403
 1.25000    1.72     1.72   0.07152  -23.3357
 1.30000    1.72     1.72   0.07119  -23.3314
 1.35000    1.72     1.72   0.07039  -23.3497
 1.40000    1.72     1.72   0.07139  -23.3275
 1.45000    1.72     1.72   0.07098  -23.3290
 1.50000    1.72     1.72   0.07146  -23.3264
 1.55000    1.72     1.72   0.07154  -23.3286
 1.60000    1.72     1.72   0.07140  -23.3283
 1.65000    1.72     1.72   0.07077  -23.3280
 1.70000    1.72     1.72   0.07065  -23.3292
 1.75000    1.72     1.72   0.07068  -23.3267
 1.80000    1.72     1.72   0.07102  -23.3278
 1.85000    1.72     1.72   0.07033  -23.3254
 1.90000    1.72     1.72   0.07049  -23.3268
 1.95000    1.72     1.72   0.07056  -23.3263
 2.00000    1.72     1.72   0.07058  -23.3246
 2.05000    1.72     1.72   0.07040  -23.3236
 2.10000    1.72     1.72   0.06999  -23.3237
 2.15000    1.72     1.72   0.07054  -23.3239
 2.20000    1.72     1.72   0.07048  -23.3237
 2.25000    1.72     1.72   0.07026  -23.3227
 2.30000    1.72     1.72   0.06948  -23.3240
 2.35000    1.72     1.72   0.06909  -23.3361
 2.40000    1.72     1.72   0.07022  -23.3247
 2.45000    1.72     1.72   0.07001  -23.3231
 2.50000    1.72     1.72   0.06993  -23.3269
 2.55000    1.72     1.72   0.07027  -23.3278
 2.60000    1.72     1.72   0.07052  -23.3298
 2.65000    1.72     1.72   0.07017  -23.3277
 2.70000    1.72     1.72   0.07007  -23.3269
 2.75000    1.72     1.72   0.07005  -23.3276
 2.80000    1.72     1.72   0.07079  -23.3459
 2.85000    1.72     1.72   0.06874  -23.3484
 2.90000    1.72     1.72   0.07003  -23.3229
 2.95000    1.72     1.72   0.07005  -23.3234
 3.00000    1.72     1.72   0.06998  -23.3214
 3.05000    1.72     1.72   0.06999  -23.3213
 3.10000    1.72     1.72   0.06994  -23.3219
 3.15000    1.72     1.72   0.06966  -23.3277
 3.20000    1.72     1.72   0.06968  -23.3462
 3.25000    1.72     1.72   0.07084  -23.3387
 3.30000    1.72     1.72   0.07015  -23.3349
 3.35000    1.72     1.72   0.06996  -23.3348
 3.40000    1.72     1.72   0.06967  -23.3264
 3.45000    1.72     1.72   0.07002  -23.3204
 3.50000    1.72     1.72   0.06865  -23.3318
 3.55000    1.72     1.72   0.07029  -23.3349
 3.60000    1.72     1.72   0.06994  -23.3289
 3.65000    1.72     1.72   0.07007  -23.3204
 3.70000    1.72     1.72   0.06990  -23.3192
 3.75000    1.72     1.72   0.07039  -23.3193
 3.80000    1.72     1.72   0.07043  -23.3205
 3.85000    1.72     1.72   0.06998  -23.3178
 3.90000    1.72     1.72   0.07024  -23.3186
 3.95000    1.72     1.72   0.07028  -23.3188
 4.00000    1.72     1.72   0.07019  -23.3198
 4.00000    1.72     1.72   0.07009  -23.3190
 3.95000    1.72     1.72   0.07026  -23.3173
 3.90000    1.72     1.72   0.07028  -23.3129
 3.85000    1.72     1.72   0.07024  -23.3148
 3.80000    1.72     1.72   0.07011  -23.3150
 3.75000    1.72     1.72   0.06965  -23.3287
 3.70000    1.72     1.72   0.06843  -23.3049
 3.65000    1.72     1.72   0.06979  -23.3135
 3.60000    1.72     1.72   0.07002  -23.3079
 3.55000    1.72     1.72   0.07058  -23.3128
 3.50000    1.72     1.72   0.07067  -23.3090
 3.45000    1.72     1.72   0.07063  -23.3112
 3.40000    1.72     1.72   0.07082  -23.3088
 3.35000    1.72     1.72   0.07065  -23.3093
 3.30000    1.72     1.72   0.07052  -23.3134
 3.25000    1.72     1.72   0.07038  -23.3130
 3.20000    1.72     1.72   0.07018  -23.3107
 3.15000    1.72     1.72   0.07020  -23.3108
 3.10000    1.72     1.72   0.07042  -23.3108
 3.05000    1.72     1.72   0.07043  -23.3112
 3.00000    1.72     1.72   0.07037  -23.3119
 2.95000    1.72     1.72   0.07050  -23.3125
 2.90000    1.72     1.72   0.07057  -23.3126
 2.85000    1.72     1.72   0.07077  -23.3112
 2.80000    1.72     1.72   0.07058  -23.3118
 2.75000    1.72     1.72   0.07065  -23.3108
 2.70000    1.72     1.72   0.07089  -23.3115
 2.65000    1.72     1.72   0.07061  -23.3143
 2.60000    1.72     1.72   0.07347  -23.3150
 2.55000    1.72     1.72   0.06942  -23.3275
 2.50000    1.72     1.72   0.07020  -23.3102
 2.45000    1.72     1.72   0.07086  -23.3089
 2.40000    1.72     1.72   0.07102  -23.3116
 2.35000    1.72     1.72   0.07079  -23.3098
 2.30000    1.72     1.72   0.07114  -23.3121
 2.25000    1.72     1.72   0.07101  -23.3118
 2.20000    1.72     1.72   0.07057  -23.3099
 2.15000    1.72     1.72   0.07065  -23.3106
 2.10000    1.72     1.72   0.07101  -23.3121
 2.05000    1.72     1.72   0.07106  -23.3142
 2.00000    1.72     1.72   0.07086  -23.3051
 1.95000    1.72     1.72   0.07113  -23.3099
 1.90000    1.72     1.72   0.07102  -23.3100
 1.85000    1.72     1.72   0.07126  -23.3106
 1.80000    1.72     1.72   0.07138  -23.3114
 1.75000    1.72     1.72   0.07142  -23.3098
 1.70000    1.72     1.72   0.07155  -23.3122
 1.65000    1.72     1.72   0.07141  -23.3120
 1.60000    1.72     1.72   0.07109  -23.3118
 1.55000    1.72     1.72   0.07184  -23.3119
 1.50000    1.72     1.72   0.07196  -23.3126
 1.45000    1.72     1.72   0.07186  -23.3132
 1.40000    1.72     1.72   0.07194  -23.3118
 1.35000    1.72     1.72   0.07242  -23.3149
 1.30000    1.72     1.72   0.07254  -23.3182
 1.25000    1.72     1.72   0.07248  -23.3192
 1.20000    1.72     1.72   0.07250  -23.3196
 1.15000    1.72     1.72   0.07286  -23.3207
 1.10000    1.72     1.72   0.07332  -23.3256
 1.05000    1.72     1.72   0.07338  -23.3278
 1.00000    1.72     1.72   0.07374  -23.3319
 0.95000    1.72     1.72   0.07410  -23.3380
 0.90000    1.72     1.72   0.07438  -23.3456
 0.85000    1.72     1.72   0.07456  -23.3532
 0.80000    1.72     1.72   0.07470  -23.3599
 0.75000    1.72     1.72   0.07490  -23.3690
 0.70000    1.72     1.72   0.07497  -23.3877
 0.65000    1.72     1.72   0.07538  -23.4029
 0.60000    1.72     1.72   0.07523  -23.4248
 0.55000    1.72     1.72   0.07626  -23.4186
 0.50000    1.72     1.72   0.07528  -23.4464
 0.45000    1.72     1.72   0.07541  -23.4776
 0.40000    1.72     1.72   0.07418  -23.5151
 0.35000    1.72     1.72   0.07228  -23.5365
 0.30000    1.72     1.72   0.06978  -23.5378
 0.25000    1.72     1.72   0.06725  -23.5501
 0.20000    1.72     1.72   0.06512  -23.5526
 0.15000    1.72     1.72   0.06338  -23.5510
 0.10000    1.72     1.72   0.06115  -23.5447
 0.05000    1.72     1.72   0.05930  -23.5271
 -0.00000    1.72     1.72   0.05843  -23.5021
