 Field[T] Tsmpl[K] Tcntr[K] Signal   Mirror[MM]
 0.00000    5.57     3.08   1.26491  1.5469
 0.05000    5.54     3.07   1.26549  1.5470
 0.10000    5.52     3.06   1.26597  1.5469
 0.15000    5.50     3.04   1.26670  1.5468
 0.20000    5.49     3.04   1.26542  1.5470
 0.25000    5.48     3.04   1.26659  1.5469
 0.30000    5.47     3.03   1.26749  1.5469
 0.35000    5.46     3.02   1.26763  1.5468
 0.40000    5.46     3.02   1.26797  1.5470
 0.45000    5.45     3.02   1.26843  1.5468
 0.50000    5.45     3.03   1.26902  1.5469
 0.55000    5.46     3.01   1.26862  1.5472
 0.60000    5.45     3.01   1.26890  1.5468
 0.65000    5.45     3.01   1.26773  1.5466
 0.70000    5.45     3.01   1.26774  1.5464
 0.75000    5.46     3.02   1.26701  1.5467
 0.80000    5.46     3.00   1.26647  1.5469
 0.85000    5.46     3.00   1.26549  1.5470
 0.90000    5.46     3.00   1.26531  1.5469
 0.95000    5.46     3.01   1.26392  1.5469
 1.00000    5.46     3.00   1.26400  1.5471
 1.05000    5.45     3.00   1.26345  1.5472
 1.10000    5.44     2.99   1.26249  1.5470
 1.15000    5.42     2.99   1.26136  1.5471
 1.20000    5.41     3.00   1.26058  1.5470
 1.25000    5.40     2.99   1.25918  1.5468
 1.30000    5.38     2.99   1.25720  1.5468
 1.35000    5.37     2.99   1.25504  1.5469
 1.40000    5.36     3.01   1.25373  1.5471
 1.45000    5.36     2.99   1.25201  1.5469
 1.50000    5.35     2.99   1.25004  1.5468
 1.55000    5.34     2.98   1.24794  1.5466
 1.60000    5.34     2.99   1.24546  1.5461
 1.65000    5.34     3.00   1.24237  1.5457
 1.70000    5.34     2.98   1.24061  1.5452
 1.75000    5.34     3.00   1.24230  1.5443
 1.80000    5.34     2.99   1.24747  1.5438
 1.85000    5.35     2.99   1.25350  1.5437
 1.90000    5.35     3.01   1.25858  1.5438
 1.95000    5.36     2.99   1.26177  1.5439
 2.00000    5.37     2.99   1.26416  1.5439
 2.05000    5.38     2.99   1.26547  1.5441
 2.10000    5.39     3.01   1.26707  1.5443
 2.15000    5.40     2.99   1.26765  1.5444
 2.20000    5.42     3.00   1.26869  1.5442
 2.25000    5.43     3.00   1.26949  1.5443
 2.30000    5.45     3.01   1.26979  1.5445
 2.35000    5.47     3.00   1.27042  1.5446
 2.40000    5.49     3.00   1.27082  1.5448
 2.45000    5.50     3.00   1.27115  1.5447
 2.50000    5.51     3.01   1.27171  1.5448
 2.55000    5.53     3.02   1.27255  1.5448
 2.60000    5.54     3.00   1.27230  1.5449
 2.65000    5.54     3.01   1.27237  1.5450
 2.70000    5.55     3.01   1.27229  1.5450
 2.75000    5.55     3.02   1.27186  1.5451
 2.80000    5.56     3.01   1.27219  1.5451
 2.85000    5.57     3.01   1.27210  1.5450
 2.90000    5.57     3.00   1.27155  1.5451
 2.95000    5.58     3.01   1.27126  1.5452
 3.00000    5.59     3.02   1.27200  1.5454
 3.05000    5.60     3.00   1.27114  1.5457
 3.10000    5.60     3.00   1.27144  1.5456
 3.15000    5.60     3.00   1.27144  1.5453
 3.20000    5.60     3.01   1.27109  1.5454
 3.25000    5.61     3.01   1.27109  1.5457
 3.30000    5.61     3.01   1.27104  1.5457
 3.35000    5.60     3.00   1.27083  1.5457
 3.40000    5.60     3.01   1.27055  1.5454
 3.45000    5.60     3.01   1.27052  1.5455
 3.50000    5.60     3.02   1.27036  1.5455
 3.55000    5.60     3.00   1.27003  1.5455
 3.60000    5.60     3.00   1.26924  1.5456
 3.65000    5.60     3.01   1.26963  1.5457
 3.70000    5.61     3.01   1.26837  1.5456
 3.75000    5.61     3.00   1.26742  1.5456
 3.80000    5.61     3.00   1.26766  1.5456
 3.85000    5.61     3.00   1.26807  1.5457
 3.90000    5.61     3.00   1.26683  1.5458
 3.95000    5.62     3.02   1.26809  1.5458
 4.00000    5.62     3.00   1.26766  1.5459
 4.00000    5.62     3.00   1.26754  1.5459
 3.95000    5.62     3.00   1.26813  1.5457
 3.90000    5.63     3.01   1.26821  1.5456
 3.85000    5.63     3.02   1.26921  1.5456
 3.80000    5.64     3.00   1.26917  1.5456
 3.75000    5.64     3.01   1.26974  1.5455
 3.70000    5.65     3.01   1.26992  1.5454
 3.65000    5.66     3.03   1.27017  1.5456
 3.60000    5.67     3.01   1.27075  1.5455
 3.55000    5.67     3.01   1.27081  1.5456
 3.50000    5.68     3.01   1.27073  1.5457
 3.45000    5.68     3.02   1.27099  1.5457
 3.40000    5.69     3.02   1.27101  1.5455
 3.35000    5.70     3.00   1.27155  1.5458
 3.30000    5.70     3.01   1.27094  1.5456
 3.25000    5.70     3.01   1.27187  1.5454
 3.20000    5.70     3.03   1.27186  1.5457
 3.15000    5.71     3.01   1.27249  1.5453
 3.10000    5.71     3.01   1.27188  1.5453
 3.05000    5.70     3.01   1.27247  1.5453
 3.00000    5.70     3.01   1.27264  1.5452
 2.95000    5.71     3.02   1.27304  1.5452
 2.90000    5.72     3.00   1.27310  1.5451
 2.85000    5.72     3.00   1.27298  1.5452
 2.80000    5.72     3.00   1.27334  1.5451
 2.75000    5.72     3.00   1.27383  1.5449
 2.70000    5.72     3.00   1.27333  1.5450
 2.65000    5.73     3.02   1.27339  1.5451
 2.60000    5.74     3.00   1.27352  1.5450
 2.55000    5.74     3.01   1.27324  1.5449
 2.50000    5.74     3.01   1.27325  1.5449
 2.45000    5.75     3.00   1.27341  1.5449
 2.40000    5.76     3.02   1.27358  1.5447
 2.35000    5.76     3.01   1.27272  1.5446
 2.30000    5.77     3.00   1.27259  1.5447
 2.25000    5.77     3.01   1.27255  1.5444
 2.20000    5.78     3.02   1.27163  1.5444
 2.15000    5.79     3.02   1.27093  1.5443
 2.10000    5.80     3.00   1.27056  1.5442
 2.05000    5.81     3.00   1.26882  1.5441
 2.00000    5.82     3.00   1.26755  1.5440
 1.95000    5.82     3.00   1.26550  1.5438
 1.90000    5.83     3.00   1.26279  1.5437
 1.85000    5.84     3.02   1.25835  1.5438
 1.80000    5.85     3.00   1.25273  1.5440
 1.75000    5.85     3.00   1.24749  1.5446
 1.70000    5.84     3.00   1.24597  1.5452
 1.65000    5.84     3.01   1.24754  1.5460
 1.60000    5.84     3.01   1.25069  1.5463
 1.55000    5.83     3.00   1.25329  1.5465
 1.50000    5.82     3.00   1.25546  1.5467
 1.45000    5.80     3.00   1.25815  1.5470
 1.40000    5.80     3.01   1.26019  1.5471
 1.35000    5.79     2.99   1.26213  1.5472
 1.30000    5.77     3.00   1.26428  1.5470
 1.25000    5.76     3.00   1.26539  1.5472
 1.20000    5.76     3.01   1.26709  1.5471
 1.15000    5.76     2.99   1.26814  1.5472
 1.10000    5.69     2.77   1.26987  1.5471
 1.05000    5.62     2.86   1.27066  1.5472
 1.00000    5.58     2.86   1.27144  1.5473
 0.95000    5.54     2.87   1.27203  1.5471
 0.90000    5.50     2.89   1.27330  1.5471
 0.85000    5.47     2.91   1.27360  1.5471
 0.80000    5.45     2.91   1.27437  1.5470
 0.75000    5.43     2.92   1.27487  1.5472
 0.70000    5.42     2.93   1.27606  1.5471
 0.65000    5.41     2.94   1.27681  1.5468
 0.60000    5.41     2.94   1.27720  1.5470
 0.55000    5.40     2.94   1.27769  1.5471
 0.50000    5.40     2.95   1.27843  1.5469
 0.45000    5.40     2.96   1.27791  1.5469
 0.40000    5.40     2.97   1.27922  1.5471
 0.35000    5.39     2.95   1.27942  1.5472
 0.30000    5.38     2.96   1.28010  1.5474
 0.25000    5.38     2.97   1.28032  1.5473
 0.20000    5.37     2.98   1.28037  1.5476
 0.15000    5.37     2.96   1.28108  1.5474
 0.10000    5.36     2.97   1.28140  1.5472
 0.05000    5.35     2.96   1.28154  1.5473
-0.00000    5.34     2.98   1.28221  1.5471
