 Field[T] Tsmpl[K] Tcntr[K] Signal   Mirror[MM]
 0.00000    5.14     2.92   1.10450  1.6858
 0.05000    5.11     2.92   1.10366  1.6858
 0.10000    5.09     2.92   1.10333  1.6857
 0.15000    5.07     2.92   1.10254  1.6858
 0.20000    5.04     2.91   1.10184  1.6857
 0.25000    5.02     2.92   1.10129  1.6858
 0.30000    5.00     2.91   1.10054  1.6856
 0.35000    4.98     2.91   1.09965  1.6857
 0.40000    4.96     2.92   1.09933  1.6858
 0.45000    4.95     2.92   1.09861  1.6861
 0.50000    4.94     2.93   1.09801  1.6859
 0.55000    4.94     2.94   1.09714  1.6857
 0.60000    4.94     2.93   1.09656  1.6856
 0.65000    4.93     2.91   1.09557  1.6857
 0.70000    4.92     2.91   1.09503  1.6856
 0.75000    4.90     2.92   1.09404  1.6856
 0.80000    4.89     2.93   1.09313  1.6858
 0.85000    4.87     2.90   1.09267  1.6858
 0.90000    4.86     2.92   1.09196  1.6856
 0.95000    4.85     2.91   1.09079  1.6855
 1.00000    4.83     2.88   1.08996  1.6857
 1.05000    4.81     2.89   1.08903  1.6856
 1.10000    4.79     2.88   1.08866  1.6856
 1.15000    4.77     2.90   1.08758  1.6855
 1.20000    4.76     2.88   1.08707  1.6856
 1.25000    4.74     2.89   1.08548  1.6858
 1.30000    4.74     2.88   1.08411  1.6856
 1.35000    4.72     2.90   1.08316  1.6855
 1.40000    4.72     2.90   1.08192  1.6856
 1.45000    4.72     2.91   1.08001  1.6857
 1.50000    4.72     2.91   1.08003  1.6855
 1.55000    4.71     2.90   1.07902  1.6854
 1.60000    4.71     2.90   1.07921  1.6851
 1.65000    4.71     2.91   1.07897  1.6853
 1.70000    4.71     2.92   1.07870  1.6851
 1.75000    4.72     2.92   1.07816  1.6849
 1.80000    4.71     2.93   1.07788  1.6847
 1.85000    4.71     2.94   1.07676  1.6849
 1.90000    4.71     2.95   1.07713  1.6848
 1.95000    4.70     2.95   1.07690  1.6847
 2.00000    4.70     2.97   1.07602  1.6848
 2.05000    4.69     2.96   1.07584  1.6847
 2.10000    4.69     2.97   1.07568  1.6845
 2.15000    4.68     2.98   1.07496  1.6845
 2.20000    4.67     2.97   1.07447  1.6845
 2.25000    4.66     2.98   1.07391  1.6845
 2.30000    4.66     3.00   1.07327  1.6844
 2.35000    4.66     2.98   1.07323  1.6842
 2.40000    4.66     2.98   1.07256  1.6843
 2.45000    4.66     2.98   1.07272  1.6842
 2.50000    4.68     3.00   1.07283  1.6840
 2.55000    4.68     2.99   1.07330  1.6838
 2.60000    4.69     3.00   1.07321  1.6838
 2.65000    4.70     2.99   1.07422  1.6837
 2.70000    4.71     2.99   1.07474  1.6837
 2.75000    4.73     3.00   1.07509  1.6837
 2.80000    4.73     3.00   1.07536  1.6836
 2.85000    4.74     3.01   1.07639  1.6835
 2.90000    4.76     2.99   1.07667  1.6835
 2.95000    4.77     3.00   1.07730  1.6836
 3.00000    4.78     3.02   1.07756  1.6836
 3.05000    4.80     3.02   1.07734  1.6836
 3.10000    4.80     3.01   1.07758  1.6837
 3.15000    4.81     3.01   1.07734  1.6837
 3.20000    4.82     3.02   1.07735  1.6838
 3.25000    4.83     3.02   1.07627  1.6838
 3.30000    4.84     3.01   1.07669  1.6838
 3.35000    4.86     3.02   1.07631  1.6839
 3.40000    4.87     3.03   1.07646  1.6839
 3.45000    4.89     3.02   1.07645  1.6839
 3.50000    4.90     3.02   1.07588  1.6840
 3.55000    4.93     3.03   1.07609  1.6841
 3.60000    4.94     3.02   1.07611  1.6840
 3.65000    4.96     3.02   1.07607  1.6840
 3.70000    4.97     3.03   1.07532  1.6841
 3.75000    4.98     3.03   1.07567  1.6842
 3.80000    4.99     3.03   1.07551  1.6843
 3.85000    5.00     3.03   1.07471  1.6843
 3.90000    5.00     3.04   1.07525  1.6842
 3.95000    5.00     3.03   1.07460  1.6841
 4.00000    5.00     3.04   1.07481  1.6842
 4.05000    5.01     3.03   1.07442  1.6842
 4.10000    5.00     3.03   1.07455  1.6843
 4.15000    5.00     3.04   1.07454  1.6842
 4.20000    5.00     3.03   1.07453  1.6844
 4.25000    4.99     3.03   1.07368  1.6845
 4.30000    4.99     3.02   1.07350  1.6843
 4.35000    4.99     3.03   1.07374  1.6844
 4.40000    4.99     3.02   1.07401  1.6844
 4.45000    4.99     3.02   1.07326  1.6846
 4.50000    4.99     3.03   1.07322  1.6846
 4.55000    4.99     3.01   1.07300  1.6847
 4.60000    4.99     3.02   1.07309  1.6846
 4.65000    5.00     3.02   1.07307  1.6846
 4.70000    5.00     3.02   1.07281  1.6847
 4.75000    5.00     3.02   1.07261  1.6847
 4.80000    5.00     3.03   1.07223  1.6848
 4.85000    5.01     3.02   1.07221  1.6849
 4.90000    5.01     3.02   1.07189  1.6848
 4.95000    5.01     3.03   1.07170  1.6849
 5.00000    5.01     3.02   1.07157  1.6851
 5.00000    5.01     3.02   1.07132  1.6851
 4.95000    5.02     3.02   1.07081  1.6854
 4.90000    5.03     3.04   1.07231  1.6852
 4.85000    5.05     3.06   1.07255  1.6852
 4.80000    5.06     3.07   1.07155  1.6851
 4.75000    5.09     3.08   1.07210  1.6853
 4.70000    5.12     3.11   1.07289  1.6850
 4.65000    5.15     3.10   1.07302  1.6849
 4.60000    5.18     3.12   1.07373  1.6848
 4.55000    5.20     3.12   1.07400  1.6849
 4.50000    5.23     3.13   1.07422  1.6847
 4.45000    5.26     3.12   1.07461  1.6846
 4.40000    5.29     3.16   1.07431  1.6847
 4.35000    5.32     3.13   1.07496  1.6847
 4.30000    5.34     3.14   1.07509  1.6848
 4.25000    5.37     3.14   1.07574  1.6848
 4.20000    5.39     3.13   1.07641  1.6846
 4.15000    5.41     3.13   1.07681  1.6846
 4.10000    5.44     3.14   1.07653  1.6845
 4.05000    5.45     3.14   1.07719  1.6846
 4.00000    5.47     3.13   1.07726  1.6846
 3.95000    5.49     3.13   1.07749  1.6846
 3.90000    5.51     3.12   1.07811  1.6845
 3.85000    5.53     3.11   1.07833  1.6844
 3.80000    5.54     3.10   1.07836  1.6844
 3.75000    5.56     3.13   1.07805  1.6844
 3.70000    5.58     3.10   1.07800  1.6842
 3.65000    5.59     3.10   1.07808  1.6845
 3.60000    5.60     3.09   1.07781  1.6844
 3.55000    5.61     3.08   1.07784  1.6843
 3.50000    5.62     3.09   1.07853  1.6844
 3.45000    5.63     3.08   1.07858  1.6842
 3.40000    5.64     3.07   1.07878  1.6841
 3.35000    5.65     3.08   1.07857  1.6840
 3.30000    5.66     3.06   1.07850  1.6840
 3.25000    5.67     3.07   1.07914  1.6841
 3.20000    5.69     3.06   1.07910  1.6841
 3.15000    5.70     3.07   1.07876  1.6840
 3.10000    5.71     3.06   1.07894  1.6840
 3.05000    5.72     3.06   1.07892  1.6839
 3.00000    5.73     3.04   1.07873  1.6840
 2.95000    5.74     3.04   1.07858  1.6839
 2.90000    5.74     3.04   1.07823  1.6839
 2.85000    5.75     3.05   1.07786  1.6838
 2.80000    5.77     3.03   1.07736  1.6838
 2.75000    5.77     3.04   1.07710  1.6837
 2.70000    5.78     3.02   1.07636  1.6839
 2.65000    5.78     3.04   1.07609  1.6839
 2.60000    5.79     3.02   1.07489  1.6838
 2.55000    5.79     3.02   1.07520  1.6839
 2.50000    5.79     3.02   1.07491  1.6841
 2.45000    5.80     3.02   1.07492  1.6841
 2.40000    5.80     3.05   1.07491  1.6842
 2.35000    5.82     3.04   1.07516  1.6843
 2.30000    5.82     3.03   1.07545  1.6842
 2.25000    5.83     3.03   1.07583  1.6845
 2.20000    5.83     3.02   1.07632  1.6847
 2.15000    5.84     3.03   1.07638  1.6847
 2.10000    5.85     3.02   1.07670  1.6848
 2.05000    5.85     3.01   1.07697  1.6848
 2.00000    5.85     3.02   1.07750  1.6848
 1.95000    5.85     3.02   1.07803  1.6849
 1.90000    5.86     3.00   1.07842  1.6849
 1.85000    5.86     3.01   1.07913  1.6850
 1.80000    5.86     3.01   1.07942  1.6850
 1.75000    5.86     3.02   1.07973  1.6849
 1.70000    5.85     3.00   1.07991  1.6850
 1.65000    5.84     3.01   1.08023  1.6851
 1.60000    5.83     3.00   1.08071  1.6851
 1.55000    5.82     3.01   1.08071  1.6853
 1.50000    5.81     3.00   1.08099  1.6855
 1.45000    5.80     3.00   1.08190  1.6854
 1.40000    5.79     3.00   1.08266  1.6856
 1.35000    5.78     3.01   1.08368  1.6856
 1.30000    5.78     2.99   1.08455  1.6856
 1.25000    5.78     3.00   1.08513  1.6854
 1.20000    5.78     3.01   1.08583  1.6856
 1.15000    5.79     3.01   1.08686  1.6855
 1.10000    5.79     2.99   1.08713  1.6858
 1.05000    5.79     2.99   1.08792  1.6857
 1.00000    5.79     3.00   1.08878  1.6857
 0.95000    5.79     3.00   1.08913  1.6857
 0.90000    5.78     2.99   1.08953  1.6856
 0.85000    5.78     3.01   1.09039  1.6857
 0.80000    5.78     2.99   1.09053  1.6858
 0.75000    5.76     2.99   1.09078  1.6857
 0.70000    5.74     2.99   1.09161  1.6856
 0.65000    5.72     3.00   1.09188  1.6857
 0.60000    5.69     2.98   1.09252  1.6857
 0.55000    5.66     2.99   1.09289  1.6857
 0.50000    5.62     2.99   1.09259  1.6858
 0.45000    5.59     2.99   1.09324  1.6858
 0.40000    5.55     3.01   1.09295  1.6858
 0.35000    5.52     2.98   1.09368  1.6858
 0.30000    5.48     2.98   1.09365  1.6857
 0.25000    5.46     2.98   1.09445  1.6858
 0.20000    5.43     2.98   1.09407  1.6859
 0.15000    5.41     3.00   1.09474  1.6859
 0.10000    5.39     2.98   1.09530  1.6859
 0.05000    5.37     2.98   1.09556  1.6858
-0.00000    5.36     2.98   1.09551  1.6860
