 Field[T] Tsmpl[K] Tcntr[K] SignalIntensity   Mirror[MM]
 0.00000    5.15     5.15   0.03239  -9.8745
 0.05000    5.15     5.15   0.03211  -9.8745
 0.10000    5.15     5.15   0.03214  -9.8745
 0.15000    5.15     5.15   0.03193  -9.8745
 0.20000    5.15     5.15   0.03174  -9.8745
 0.25000    5.15     5.15   0.03174  -9.8745
 0.30000    5.15     5.15   0.03159  -9.8735
 0.35000    5.15     5.15   0.03169  -9.8735
 0.40000    5.15     5.15   0.03201  -9.8735
 0.45000    5.15     5.15   0.03225  -9.8735
 0.50000    5.15     5.15   0.03271  -9.8733
 0.55000    5.15     5.15   0.03354  -9.8725
 0.60000    5.15     5.15   0.03350  -9.8725
 0.65000    5.15     5.15   0.03297  -9.8725
 0.70000    5.15     5.15   0.03259  -9.8725
 0.75000    5.15     5.15   0.03224  -9.8720
 0.80000    5.15     5.15   0.03228  -9.8720
 0.85000    5.15     5.15   0.03225  -9.8720
 0.90000    5.15     5.15   0.03238  -9.8720
 0.95000    5.15     5.15   0.03254  -9.8712
 1.00000    5.15     5.15   0.03286  -9.8710
 1.05000    5.15     5.15   0.03323  -9.8705
 1.10000    5.15     5.15   0.03299  -9.8700
 1.15000    5.15     5.15   0.03259  -9.8700
 1.20000    5.15     5.15   0.03245  -9.8697
 1.25000    5.15     5.15   0.03249  -9.8690
 1.30000    5.15     5.15   0.03244  -9.8685
 1.35000    5.15     5.15   0.03232  -9.8680
 1.40000    5.15     5.15   0.03200  -9.8680
 1.45000    5.15     5.15   0.03175  -9.8680
 1.50000    5.15     5.15   0.03134  -9.8675
 1.55000    5.15     5.15   0.03139  -9.8670
 1.60000    5.15     5.15   0.03137  -9.8663
 1.65000    5.15     5.15   0.03112  -9.8655
 1.70000    5.15     5.15   0.03101  -9.8650
 1.75000    5.15     5.15   0.03093  -9.8655
 1.80000    5.15     5.15   0.03081  -9.8655
 1.85000    5.15     5.15   0.03086  -9.8655
 1.90000    5.15     5.15   0.03096  -9.8655
 1.95000    5.15     5.15   0.03058  -9.8650
 2.00000    5.15     5.15   0.03020  -9.8645
 2.05000    5.15     5.15   0.03009  -9.8635
 2.10000    5.15     5.15   0.02988  -9.8633
 2.15000    5.15     5.15   0.02996  -9.8635
 2.20000    5.15     5.15   0.03008  -9.8637
 2.25000    5.15     5.15   0.02997  -9.8635
 2.30000    5.15     5.15   0.02995  -9.8635
 2.35000    5.15     5.15   0.02988  -9.8632
 2.40000    5.15     5.15   0.02974  -9.8630
 2.45000    5.15     5.15   0.02941  -9.8623
 2.50000    5.15     5.15   0.02927  -9.8625
 2.55000    5.15     5.15   0.02928  -9.8620
 2.60000    5.15     5.15   0.02916  -9.8620
 2.65000    5.15     5.15   0.02936  -9.8620
 2.70000    5.15     5.15   0.02951  -9.8615
 2.75000    5.15     5.15   0.02942  -9.8610
 2.80000    5.15     5.15   0.02954  -9.8607
 2.85000    5.15     5.15   0.02952  -9.8600
 2.90000    5.15     5.15   0.02949  -9.8600
 2.95000    5.15     5.15   0.02931  -9.8590
 3.00000    5.15     5.15   0.02931  -9.8589
 3.05000    5.15     5.15   0.02925  -9.8580
 3.10000    5.15     5.15   0.02931  -9.8576
 3.15000    5.15     5.15   0.02937  -9.8570
 3.20000    5.15     5.15   0.02897  -9.8565
 3.25000    5.15     5.15   0.02874  -9.8563
 3.30000    5.15     5.15   0.02858  -9.8556
 3.35000    5.15     5.15   0.02847  -9.8553
 3.40000    5.15     5.15   0.02848  -9.8550
 3.45000    5.15     5.15   0.02811  -9.8550
 3.50000    5.15     5.15   0.02795  -9.8550
 3.55000    5.15     5.15   0.02799  -9.8550
 3.60000    5.15     5.15   0.02805  -9.8545
 3.65000    5.15     5.15   0.02831  -9.8545
 3.70000    5.15     5.15   0.02817  -9.8545
 3.75000    5.15     5.15   0.02747  -9.8545
 3.80000    5.15     5.15   0.02706  -9.8545
 3.85000    5.15     5.15   0.02690  -9.8545
 3.90000    5.15     5.15   0.02708  -9.8545
 3.95000    5.15     5.15   0.02749  -9.8547
 4.00000    5.15     5.15   0.02755  -9.8552
 4.05000    5.15     5.15   0.02778  -9.8555
 4.10000    5.15     5.15   0.02807  -9.8555
 4.15000    5.15     5.15   0.02851  -9.8550
 4.20000    5.15     5.15   0.02899  -9.8540
 4.25000    5.15     5.15   0.02985  -9.8530
 4.30000    5.15     5.15   0.03022  -9.8520
 4.35000    5.15     5.15   0.03045  -9.8505
 4.40000    5.15     5.15   0.03067  -9.8495
 4.45000    5.15     5.15   0.03095  -9.8480
 4.50000    5.15     5.15   0.03161  -9.8460
 4.55000    5.15     5.15   0.03221  -9.8441
 4.60000    5.15     5.15   0.03308  -9.8420
 4.65000    5.15     5.15   0.03317  -9.8392
 4.70000    5.15     5.15   0.03348  -9.8365
 4.75000    5.15     5.15   0.03374  -9.8335
 4.80000    5.15     5.15   0.03405  -9.8305
 4.85000    5.15     5.15   0.03440  -9.8273
 4.90000    5.15     5.15   0.03431  -9.8242
 4.95000    5.15     5.15   0.03389  -9.8208
 5.00000    5.15     5.15   0.03364  -9.8175
 5.05000    5.15     5.15   0.03362  -9.8135
 5.10000    5.15     5.15   0.03366  -9.8101
 5.15000    5.15     5.15   0.03391  -9.8056
 5.20000    5.15     5.15   0.03364  -9.8011
 5.25000    5.15     5.15   0.03352  -9.7963
 5.30000    5.15     5.15   0.03335  -9.7919
 5.35000    5.15     5.15   0.03304  -9.7866
 5.40000    5.15     5.15   0.03268  -9.7811
 5.45000    5.15     5.15   0.03236  -9.7758
 5.50000    5.15     5.15   0.03225  -9.7697
 5.55000    5.15     5.15   0.03151  -9.7631
 5.60000    5.15     5.15   0.03068  -9.7567
 5.65000    5.15     5.15   0.02974  -9.7506
 5.70000    5.15     5.15   0.02880  -9.7439
 5.75000    5.15     5.15   0.02787  -9.7373
 5.80000    5.15     5.15   0.02641  -9.7297
 5.85000    5.15     5.15   0.02465  -9.7222
 5.90000    5.15     5.15   0.02294  -9.7161
 5.95000    5.15     5.15   0.02152  -9.7092
 6.00000    5.15     5.15   0.02002  -9.7023
 6.05000    5.15     5.15   0.01853  -9.6956
 6.10000    5.15     5.15   0.01713  -9.6882
 6.15000    5.15     5.15   0.01584  -9.6816
 6.20000    5.15     5.15   0.01468  -9.6756
 6.25000    5.15     5.15   0.01339  -9.6697
 6.30000    5.15     5.15   0.01221  -9.6639
 6.35000    5.15     5.15   0.01110  -9.6584
 6.40000    5.15     5.15   0.01017  -9.6533
 6.45000    5.15     5.15   0.00927  -9.6481
 6.50000    5.15     5.15   0.00839  -9.6446
 6.55000    5.15     5.15   0.00755  -9.6415
 6.60000    5.15     5.15   0.00680  -9.6388
 6.65000    5.15     5.15   0.00614  -9.6364
 6.70000    5.15     5.15   0.00555  -9.6350
 6.75000    5.15     5.15   0.00488  -9.6340
 6.80000    5.15     5.15   0.00434  -9.6340
 6.85000    5.15     5.15   0.00387  -9.6345
 6.90000    5.15     5.15   0.00348  -9.6345
 6.95000    5.15     5.15   0.00315  -9.6355
 7.00000    5.15     5.15   0.00287  -9.6367
