 Field[T] Tsmpl[K] Tcntr[K] Signal   Mirror[MM]
 0.00000    1.80     1.80   0.42974  -10.9488
 0.05000    1.80     1.80   0.43022  -10.9491
 0.10000    1.80     1.80   0.43055  -10.9491
 0.15000    1.80     1.80   0.43087  -10.9492
 0.20000    1.80     1.80   0.43132  -10.9491
 0.25000    1.80     1.80   0.43158  -10.9493
 0.30000    1.80     1.80   0.43188  -10.9494
 0.35000    1.80     1.80   0.43194  -10.9495
 0.40000    1.80     1.80   0.43216  -10.9493
 0.45000    1.80     1.80   0.43234  -10.9493
 0.50000    1.80     1.80   0.43275  -10.9493
 0.55000    1.80     1.80   0.43274  -10.9496
 0.60000    1.80     1.80   0.43259  -10.9495
 0.65000    1.80     1.80   0.43280  -10.9495
 0.70000    1.80     1.80   0.43274  -10.9495
 0.75000    1.80     1.80   0.43304  -10.9494
 0.80000    1.80     1.80   0.43321  -10.9493
 0.85000    1.80     1.80   0.43330  -10.9490
 0.90000    1.80     1.80   0.43331  -10.9491
 0.95000    1.80     1.80   0.43288  -10.9491
 1.00000    1.80     1.80   0.43209  -10.9487
 1.05000    1.80     1.80   0.43144  -10.9486
 1.10000    1.80     1.80   0.43078  -10.9485
 1.15000    1.80     1.80   0.43001  -10.9482
 1.20000    1.80     1.80   0.42990  -10.9483
 1.25000    1.80     1.80   0.42904  -10.9486
 1.30000    1.80     1.80   0.42863  -10.9486
 1.35000    1.80     1.80   0.42799  -10.9486
 1.40000    1.80     1.80   0.42750  -10.9485
 1.45000    1.80     1.80   0.42734  -10.9490
 1.50000    1.80     1.80   0.42704  -10.9491
 1.55000    1.80     1.80   0.42644  -10.9493
 1.60000    1.80     1.80   0.42584  -10.9493
 1.65000    1.80     1.80   0.42526  -10.9496
 1.70000    1.80     1.80   0.42468  -10.9497
 1.75000    1.80     1.80   0.42416  -10.9498
 1.80000    1.80     1.80   0.42385  -10.9499
 1.85000    1.80     1.80   0.42337  -10.9501
 1.90000    1.80     1.80   0.42255  -10.9504
 1.95000    1.80     1.80   0.42213  -10.9504
 2.00000    1.80     1.80   0.42182  -10.9507
 2.05000    1.80     1.80   0.42163  -10.9511
 2.10000    1.80     1.80   0.42125  -10.9516
 2.15000    1.80     1.80   0.42103  -10.9519
 2.20000    1.80     1.80   0.42069  -10.9521
 2.25000    1.80     1.80   0.42027  -10.9521
 2.30000    1.80     1.80   0.42039  -10.9525
 2.35000    1.80     1.80   0.42042  -10.9525
 2.40000    1.80     1.80   0.42037  -10.9528
 2.45000    1.80     1.80   0.42043  -10.9530
 2.50000    1.80     1.80   0.42047  -10.9532
 2.55000    1.80     1.80   0.42032  -10.9534
 2.60000    1.80     1.80   0.42040  -10.9537
 2.65000    1.80     1.80   0.42072  -10.9540
 2.70000    1.80     1.80   0.42078  -10.9540
 2.75000    1.80     1.80   0.42088  -10.9546
 2.80000    1.80     1.80   0.42063  -10.9544
 2.85000    1.80     1.80   0.42053  -10.9548
 2.90000    1.80     1.80   0.42058  -10.9544
 2.95000    1.80     1.80   0.42107  -10.9548
 3.00000    1.80     1.80   0.42098  -10.9550
 3.05000    1.80     1.80   0.42110  -10.9554
 3.10000    1.80     1.80   0.42104  -10.9551
 3.15000    1.80     1.80   0.42126  -10.9551
 3.20000    1.80     1.80   0.42139  -10.9553
 3.25000    1.80     1.80   0.42156  -10.9558
 3.30000    1.80     1.80   0.42165  -10.9558
 3.35000    1.80     1.80   0.42152  -10.9557
 3.40000    1.80     1.80   0.42159  -10.9559
 3.45000    1.80     1.80   0.42179  -10.9558
 3.50000    1.80     1.80   0.42178  -10.9564
 3.55000    1.80     1.80   0.42174  -10.9559
 3.60000    1.80     1.80   0.42201  -10.9562
 3.65000    1.80     1.80   0.42184  -10.9562
 3.70000    1.80     1.80   0.42190  -10.9565
 3.75000    1.80     1.80   0.42216  -10.9565
 3.80000    1.80     1.80   0.42224  -10.9565
 3.85000    1.80     1.80   0.42228  -10.9564
 3.90000    1.80     1.80   0.42192  -10.9562
 3.95000    1.80     1.80   0.42275  -10.9565
 4.00000    1.80     1.80   0.42261  -10.9565
 4.05000    1.80     1.80   0.42287  -10.9568
 4.10000    1.80     1.80   0.42275  -10.9568
 4.15000    1.80     1.80   0.42290  -10.9570
 4.20000    1.80     1.80   0.42307  -10.9571
 4.25000    1.80     1.80   0.42301  -10.9574
 4.30000    1.80     1.80   0.42314  -10.9572
 4.35000    1.80     1.80   0.42285  -10.9571
 4.40000    1.80     1.80   0.42304  -10.9571
 4.45000    1.80     1.80   0.42290  -10.9572
 4.50000    1.80     1.80   0.42325  -10.9572
 4.55000    1.80     1.80   0.42349  -10.9572
 4.60000    1.80     1.80   0.42323  -10.9571
 4.65000    1.80     1.80   0.42341  -10.9575
 4.70000    1.80     1.80   0.42375  -10.9576
 4.75000    1.80     1.80   0.42391  -10.9577
 4.80000    1.80     1.80   0.42394  -10.9576
 4.85000    1.80     1.80   0.42384  -10.9577
 4.90000    1.80     1.80   0.42405  -10.9576
 4.95000    1.80     1.80   0.42405  -10.9577
 5.00000    1.80     1.80   0.42403  -10.9579
 5.00000    1.80     1.80   0.42405  -10.9578
 4.95000    1.80     1.80   0.42423  -10.9580
 4.90000    1.80     1.80   0.42454  -10.9577
 4.85000    1.80     1.80   0.42433  -10.9579
 4.80000    1.80     1.80   0.42426  -10.9577
 4.75000    1.80     1.80   0.42415  -10.9577
 4.70000    1.80     1.80   0.42457  -10.9580
 4.65000    1.80     1.80   0.42422  -10.9576
 4.60000    1.80     1.80   0.42479  -10.9577
 4.55000    1.80     1.80   0.42487  -10.9582
 4.50000    1.80     1.80   0.42481  -10.9580
 4.45000    1.80     1.80   0.42469  -10.9581
 4.40000    1.80     1.80   0.42470  -10.9581
 4.35000    1.80     1.80   0.42509  -10.9578
 4.30000    1.80     1.80   0.42501  -10.9581
 4.25000    1.80     1.80   0.42528  -10.9585
 4.20000    1.80     1.80   0.42511  -10.9582
 4.15000    1.80     1.80   0.42529  -10.9581
 4.10000    1.80     1.80   0.42539  -10.9581
 4.05000    1.80     1.80   0.42549  -10.9583
 4.00000    1.80     1.80   0.42564  -10.9582
 3.95000    1.80     1.80   0.42572  -10.9580
 3.90000    1.80     1.80   0.42570  -10.9579
 3.85000    1.80     1.80   0.42575  -10.9582
 3.80000    1.80     1.80   0.42583  -10.9580
 3.75000    1.80     1.80   0.42547  -10.9579
 3.70000    1.80     1.80   0.42553  -10.9579
 3.65000    1.80     1.80   0.42565  -10.9580
 3.60000    1.80     1.80   0.42540  -10.9580
 3.55000    1.80     1.80   0.42563  -10.9579
 3.50000    1.80     1.80   0.42543  -10.9578
 3.45000    1.80     1.80   0.42533  -10.9577
 3.40000    1.80     1.80   0.42530  -10.9578
 3.35000    1.80     1.80   0.42513  -10.9578
 3.30000    1.80     1.80   0.42509  -10.9576
 3.25000    1.80     1.80   0.42541  -10.9577
 3.20000    1.80     1.80   0.42531  -10.9576
 3.15000    1.80     1.80   0.42531  -10.9577
 3.10000    1.80     1.80   0.42531  -10.9578
 3.05000    1.80     1.80   0.42521  -10.9577
 3.00000    1.80     1.80   0.42499  -10.9577
 2.95000    1.80     1.80   0.42503  -10.9575
 2.90000    1.80     1.80   0.42516  -10.9574
 2.85000    1.80     1.80   0.42493  -10.9575
 2.80000    1.80     1.80   0.42491  -10.9572
 2.75000    1.80     1.80   0.42495  -10.9574
 2.70000    1.80     1.80   0.42515  -10.9573
 2.65000    1.80     1.80   0.42480  -10.9572
 2.60000    1.80     1.80   0.42491  -10.9569
 2.55000    1.80     1.80   0.42479  -10.9569
 2.50000    1.80     1.80   0.42509  -10.9571
 2.45000    1.80     1.80   0.42464  -10.9566
 2.40000    1.80     1.80   0.42471  -10.9565
 2.35000    1.80     1.80   0.42456  -10.9562
 2.30000    1.80     1.80   0.42482  -10.9560
 2.25000    1.80     1.80   0.42499  -10.9558
 2.20000    1.80     1.80   0.42478  -10.9555
 2.15000    1.80     1.80   0.42516  -10.9555
 2.10000    1.80     1.80   0.42531  -10.9553
 2.05000    1.80     1.80   0.42533  -10.9555
 2.00000    1.80     1.80   0.42549  -10.9552
 1.95000    1.80     1.80   0.42603  -10.9550
 1.90000    1.80     1.80   0.42622  -10.9549
 1.85000    1.80     1.80   0.42641  -10.9549
 1.80000    1.80     1.80   0.42690  -10.9547
 1.75000    1.80     1.80   0.42741  -10.9544
 1.70000    1.80     1.80   0.42791  -10.9543
 1.65000    1.80     1.80   0.42835  -10.9544
 1.60000    1.80     1.80   0.42907  -10.9542
 1.55000    1.80     1.80   0.42916  -10.9540
 1.50000    1.80     1.80   0.42981  -10.9542
 1.45000    1.80     1.80   0.42989  -10.9546
 1.40000    1.80     1.80   0.43062  -10.9544
 1.35000    1.80     1.80   0.43079  -10.9543
 1.30000    1.80     1.80   0.43125  -10.9542
 1.25000    1.80     1.80   0.43214  -10.9539
 1.20000    1.80     1.80   0.43244  -10.9539
 1.15000    1.80     1.80   0.43270  -10.9540
 1.10000    1.80     1.80   0.43321  -10.9542
 1.05000    1.80     1.80   0.43396  -10.9542
 1.00000    1.80     1.80   0.43461  -10.9541
 0.95000    1.80     1.80   0.43508  -10.9544
 0.90000    1.80     1.80   0.43591  -10.9551
 0.85000    1.80     1.80   0.43566  -10.9554
 0.80000    1.80     1.80   0.43574  -10.9556
 0.75000    1.80     1.80   0.43544  -10.9558
 0.70000    1.80     1.80   0.43540  -10.9560
 0.65000    1.80     1.80   0.43516  -10.9561
 0.60000    1.80     1.80   0.43495  -10.9562
 0.55000    1.80     1.80   0.43519  -10.9563
 0.50000    1.80     1.80   0.43518  -10.9564
 0.45000    1.80     1.80   0.43495  -10.9567
 0.40000    1.80     1.80   0.43518  -10.9565
 0.35000    1.80     1.80   0.43512  -10.9566
 0.30000    1.80     1.80   0.43488  -10.9566
 0.25000    1.80     1.80   0.43483  -10.9567
 0.20000    1.80     1.80   0.43481  -10.9571
 0.15000    1.80     1.80   0.43475  -10.9567
 0.10000    1.80     1.80   0.43461  -10.9570
 0.05000    1.80     1.80   0.43431  -10.9571
 -0.00000    1.80     1.80   0.43426  -10.9570
