 Field[T] Tsmpl[K] Tcntr[K] Signal   Mirror[MM]
 0.00000    1.71     1.71   0.78067  -11.0527
 0.05000    1.71     1.71   0.78764  -11.0523
 0.10000    1.71     1.71   0.79757  -11.0529
 0.15000    1.71     1.71   0.80546  -11.0469
 0.20000    1.71     1.71   0.81641  -11.0419
 0.25000    1.71     1.71   0.82606  -11.0325
 0.30000    1.71     1.71   0.83620  -11.0259
 0.35000    1.71     1.71   0.84493  -11.0135
 0.40000    1.71     1.71   0.84667  -11.0054
 0.45000    1.71     1.71   0.86047  -10.9965
 0.50000    1.71     1.71   0.87020  -10.9857
 0.55000    1.71     1.71   0.87744  -10.9757
 0.60000    1.71     1.71   0.88199  -10.9650
 0.65000    1.71     1.71   0.88750  -10.9554
 0.70000    1.71     1.71   0.89369  -10.9452
 0.75000    1.71     1.71   0.89597  -10.9343
 0.80000    1.71     1.71   0.89746  -10.9228
 0.85000    1.71     1.71   0.90199  -10.9132
 0.90000    1.71     1.71   0.90015  -10.9016
 0.95000    1.71     1.71   0.90165  -10.8931
 1.00000    1.71     1.71   0.89848  -10.8837
 1.05000    1.71     1.71   0.89736  -10.8758
 1.10000    1.71     1.71   0.89444  -10.8688
 1.15000    1.71     1.71   0.89301  -10.8640
 1.20000    1.71     1.71   0.88995  -10.8557
 1.25000    1.71     1.71   0.88764  -10.8502
 1.30000    1.71     1.71   0.88584  -10.8463
 1.35000    1.71     1.71   0.88352  -10.8436
 1.40000    1.71     1.71   0.88002  -10.8396
 1.45000    1.71     1.71   0.87890  -10.8378
 1.50000    1.71     1.71   0.87798  -10.8356
 1.55000    1.71     1.71   0.87645  -10.8327
 1.60000    1.71     1.71   0.87547  -10.8304
 1.65000    1.71     1.71   0.87380  -10.8278
 1.70000    1.71     1.71   0.87101  -10.8254
 1.75000    1.71     1.71   0.86901  -10.8188
 1.80000    1.71     1.71   0.86771  -10.8210
 1.85000    1.71     1.71   0.86867  -10.8205
 1.90000    1.71     1.71   0.86714  -10.8208
 1.95000    1.71     1.71   0.86955  -10.8187
 2.00000    1.71     1.71   0.86911  -10.8153
 2.05000    1.71     1.71   0.86683  -10.8137
 2.10000    1.71     1.71   0.86520  -10.8131
 2.15000    1.71     1.71   0.86363  -10.8125
 2.20000    1.71     1.71   0.86278  -10.8128
 2.25000    1.71     1.71   0.86319  -10.8109
 2.30000    1.71     1.71   0.86343  -10.8108
 2.35000    1.71     1.71   0.86302  -10.8101
 2.40000    1.71     1.71   0.86397  -10.8099
 2.45000    1.71     1.71   0.86336  -10.8086
 2.50000    1.71     1.71   0.86374  -10.8067
 2.55000    1.71     1.71   0.86289  -10.8060
 2.60000    1.71     1.71   0.86391  -10.8053
 2.65000    1.71     1.71   0.86278  -10.8038
 2.70000    1.71     1.71   0.86312  -10.8026
 2.75000    1.71     1.71   0.86125  -10.8014
 2.80000    1.71     1.71   0.86098  -10.7999
 2.85000    1.71     1.71   0.86214  -10.7989
 2.90000    1.71     1.71   0.86139  -10.7975
 2.95000    1.71     1.71   0.86136  -10.7968
 3.00000    1.71     1.71   0.86136  -10.7972
 3.05000    1.71     1.71   0.86187  -10.7961
 3.10000    1.71     1.71   0.86064  -10.7947
 3.15000    1.71     1.71   0.85870  -10.7932
 3.20000    1.71     1.71   0.85962  -10.7928
 3.25000    1.71     1.71   0.85942  -10.7911
 3.30000    1.71     1.71   0.85802  -10.7902
 3.35000    1.71     1.71   0.86115  -10.7891
 3.40000    1.71     1.71   0.86068  -10.7881
 3.45000    1.71     1.71   0.86136  -10.7881
 3.50000    1.71     1.71   0.86003  -10.7878
 3.55000    1.71     1.71   0.86071  -10.7872
 3.60000    1.71     1.71   0.86010  -10.7873
 3.65000    1.71     1.71   0.85833  -10.7869
 3.70000    1.71     1.71   0.85680  -10.7852
 3.75000    1.71     1.71   0.85748  -10.7844
 3.80000    1.71     1.71   0.85850  -10.7852
 3.85000    1.71     1.71   0.85809  -10.7841
 3.90000    1.71     1.71   0.85622  -10.7833
 3.95000    1.71     1.71   0.85639  -10.7832
 4.00000    1.71     1.71   0.85796  -10.7825
 4.00000    1.71     1.71   0.85898  -10.7829
 3.95000    1.71     1.71   0.85904  -10.7828
 3.90000    1.71     1.71   0.85986  -10.7855
 3.85000    1.71     1.71   0.85847  -10.7799
 3.80000    1.71     1.71   0.86377  -10.7850
 3.75000    1.71     1.71   0.86268  -10.7837
 3.70000    1.71     1.71   0.86289  -10.7849
 3.65000    1.71     1.71   0.86336  -10.7856
 3.60000    1.71     1.71   0.86428  -10.7862
 3.55000    1.71     1.71   0.86391  -10.7868
 3.50000    1.71     1.71   0.86421  -10.7869
 3.45000    1.71     1.71   0.86166  -10.7873
 3.40000    1.71     1.71   0.86105  -10.7869
 3.35000    1.71     1.71   0.86469  -10.7873
 3.30000    1.71     1.71   0.86533  -10.7873
 3.25000    1.71     1.71   0.87009  -10.7893
 3.20000    1.71     1.71   0.86734  -10.7896
 3.15000    1.71     1.71   0.87020  -10.7892
 3.10000    1.71     1.71   0.87183  -10.7905
 3.05000    1.71     1.71   0.87190  -10.7913
 3.00000    1.71     1.71   0.87207  -10.7917
 2.95000    1.71     1.71   0.87244  -10.7912
 2.90000    1.71     1.71   0.87502  -10.7927
 2.85000    1.71     1.71   0.87587  -10.7938
 2.80000    1.71     1.71   0.87683  -10.7950
 2.75000    1.71     1.71   0.87723  -10.7949
 2.70000    1.71     1.71   0.87846  -10.7953
 2.65000    1.71     1.71   0.87893  -10.7970
 2.60000    1.71     1.71   0.87992  -10.7973
 2.55000    1.71     1.71   0.88118  -10.7983
 2.50000    1.71     1.71   0.88148  -10.7988
 2.45000    1.71     1.71   0.88125  -10.8001
 2.40000    1.71     1.71   0.88244  -10.8014
 2.35000    1.71     1.71   0.88278  -10.8021
 2.30000    1.71     1.71   0.88271  -10.8029
 2.25000    1.71     1.71   0.88227  -10.8037
 2.20000    1.71     1.71   0.88437  -10.8037
 2.15000    1.71     1.71   0.88339  -10.8039
 2.10000    1.71     1.71   0.88767  -10.8040
 2.05000    1.71     1.71   0.88832  -10.8051
 2.00000    1.71     1.71   0.89005  -10.8066
 1.95000    1.71     1.71   0.89196  -10.8094
 1.90000    1.71     1.71   0.89100  -10.8104
 1.85000    1.71     1.71   0.88910  -10.8111
 1.80000    1.71     1.71   0.89192  -10.8120
 1.75000    1.71     1.71   0.89311  -10.8127
 1.70000    1.71     1.71   0.89729  -10.8153
 1.65000    1.71     1.71   0.89818  -10.8163
 1.60000    1.71     1.71   0.90076  -10.8179
 1.55000    1.71     1.71   0.90392  -10.8210
 1.50000    1.71     1.71   0.90624  -10.8238
 1.45000    1.71     1.71   0.90831  -10.8265
 1.40000    1.71     1.71   0.90967  -10.8295
 1.35000    1.71     1.71   0.91259  -10.8326
 1.30000    1.71     1.71   0.91361  -10.8362
 1.25000    1.71     1.71   0.91722  -10.8405
 1.20000    1.71     1.71   0.91773  -10.8315
 1.15000    1.71     1.71   0.92698  -10.8602
 1.10000    1.71     1.71   0.93170  -10.8549
 1.05000    1.71     1.71   0.93170  -10.8647
 1.00000    1.71     1.71   0.93347  -10.8722
 0.95000    1.71     1.71   0.93894  -10.8784
 0.90000    1.71     1.71   0.93803  -10.8900
 0.85000    1.71     1.71   0.94109  -10.8993
 0.80000    1.71     1.71   0.93469  -10.9128
 0.75000    1.71     1.71   0.93636  -10.9225
 0.70000    1.71     1.71   0.93153  -10.9336
 0.65000    1.71     1.71   0.92755  -10.9442
 0.60000    1.71     1.71   0.92269  -10.9557
 0.55000    1.71     1.71   0.91827  -10.9662
 0.50000    1.71     1.71   0.90936  -10.9768
 0.45000    1.71     1.71   0.90477  -10.9875
 0.40000    1.71     1.71   0.89576  -10.9977
 0.35000    1.71     1.71   0.88703  -11.0085
 0.30000    1.71     1.71   0.87666  -11.0182
 0.25000    1.71     1.71   0.87064  -11.0253
 0.20000    1.71     1.71   0.85449  -11.0327
 0.15000    1.71     1.71   0.84844  -11.0380
 0.10000    1.71     1.71   0.84031  -11.0444
 0.05000    1.71     1.71   0.83062  -11.0450
 -0.00000    1.71     1.71   0.82736  -11.0453
