 Field[T] Tsmpl[K] Tcntr[K] Signal
 0.00000    1.82     1.85   3.86920
 0.05000    1.82     1.85   3.86960
 0.10000    1.82     1.85   3.87070
 0.15000    1.82     1.85   3.87000
 0.20000    1.82     1.85   3.86980
 0.25000    1.82     1.85   3.86840
 0.30000    1.82     1.85   3.86850
 0.35000    1.82     1.85   3.86700
 0.40000    1.82     1.85   3.86260
 0.45000    1.82     1.85   3.86240
 0.50000    1.82     1.85   3.86160
 0.55000    1.82     1.84   3.85990
 0.60000    1.82     1.84   3.85960
 0.65000    1.82     1.84   3.85980
 0.70000    1.82     1.84   3.85790
 0.75000    1.82     1.84   3.85780
 0.80000    1.82     1.84   3.85870
 0.85000    1.82     1.84   3.85670
 0.90000    1.82     1.84   3.85870
 0.95000    1.82     1.84   3.86160
 1.00000    1.82     1.84   3.86160
 1.05000    1.82     1.84   3.86410
 1.10000    1.82     1.84   3.86240
 1.15000    1.82     1.85   3.86240
 1.20000    1.82     1.85   3.86410
 1.25000    1.82     1.85   3.86470
 1.30000    1.82     1.85   3.86090
 1.35000    1.82     1.85   3.85510
 1.40000    1.82     1.85   3.85190
 1.45000    1.82     1.85   3.85220
 1.50000    1.82     1.85   3.85890
 1.55000    1.83     1.85   3.86090
 1.60000    1.83     1.85   3.86560
 1.65000    1.83     1.85   3.86510
 1.70000    1.83     1.85   3.86750
 1.75000    1.83     1.85   3.86850
 1.80000    1.83     1.85   3.87390
 1.85000    1.83     1.85   3.88180
 1.90000    1.83     1.85   3.88110
 1.95000    1.83     1.85   3.87780
 2.00000    1.83     1.85   3.87260
 2.05000    1.83     1.85   3.87650
 2.10000    1.83     1.85   3.87150
 2.15000    1.83     1.85   3.86930
 2.20000    1.83     1.85   3.87030
 2.25000    1.83     1.85   3.87280
 2.30000    1.83     1.85   3.87800
 2.35000    1.83     1.85   3.87840
 2.40000    1.84     1.86   3.87680
 2.45000    1.84     1.86   3.87710
 2.50000    1.84     1.86   3.87750
 2.55000    1.84     1.86   3.87440
 2.60000    1.84     1.86   3.87460
 2.65000    1.84     1.86   3.87500
 2.70000    1.84     1.86   3.87410
 2.75000    1.84     1.86   3.87670
 2.80000    1.84     1.86   3.87630
 2.85000    1.84     1.86   3.88130
 2.90000    1.84     1.86   3.87820
 2.95000    1.84     1.86   3.88000
 3.00000    1.84     1.86   3.88360
 3.05000    1.84     1.86   3.88420
 3.10000    1.84     1.86   3.88460
 3.15000    1.84     1.86   3.88270
 3.20000    1.85     1.86   3.88650
 3.25000    1.85     1.87   3.88750
 3.30000    1.85     1.87   3.88780
 3.35000    1.85     1.87   3.89130
 3.40000    1.85     1.87   3.88950
 3.45000    1.85     1.87   3.89040
 3.50000    1.85     1.87   3.89010
 3.55000    1.85     1.87   3.88800
 3.60000    1.85     1.87   3.89060
 3.65000    1.85     1.87   3.88840
 3.70000    1.85     1.87   3.88840
 3.75000    1.85     1.87   3.88510
 3.80000    1.85     1.87   3.88640
 3.85000    1.85     1.87   3.88420
 3.90000    1.85     1.87   3.88720
 3.95000    1.85     1.87   3.88410
 4.00000    1.85     1.87   3.88470
 4.05000    1.86     1.87   3.88760
 4.10000    1.86     1.88   3.88610
 4.15000    1.86     1.88   3.88670
 4.20000    1.86     1.88   3.88840
 4.25000    1.86     1.88   3.88490
 4.30000    1.86     1.88   3.88800
 4.35000    1.86     1.88   3.88430
 4.40000    1.86     1.88   3.88800
 4.45000    1.86     1.88   3.88670
 4.50000    1.86     1.88   3.88290
 4.55000    1.86     1.88   3.88130
 4.60000    1.86     1.88   3.88310
 4.65000    1.86     1.88   3.88340
 4.70000    1.86     1.88   3.88370
 4.75000    1.86     1.88   3.88170
 4.80000    1.86     1.88   3.88220
 4.85000    1.86     1.88   3.88040
 4.90000    1.86     1.88   3.87980
 4.95000    1.86     1.88   3.87830
 5.00000    1.86     1.88   3.88080
 5.05000    1.86     1.88   3.88050
 5.10000    1.86     1.88   3.88010
 5.15000    1.86     1.88   3.87930
 5.20000    1.86     1.89   3.87480
 5.25000    1.86     1.89   3.87130
 5.30000    1.86     1.89   3.87230
 5.35000    1.86     1.89   3.87040
 5.40000    1.86     1.89   3.87330
 5.45000    1.86     1.89   3.86930
 5.50000    1.87     1.89   3.87060
 5.55000    1.87     1.89   3.87120
 5.60000    1.87     1.89   3.86960
 5.65000    1.87     1.89   3.87120
 5.70000    1.87     1.89   3.86750
 5.75000    1.87     1.89   3.87040
 5.80000    1.87     1.89   3.86760
 5.85000    1.87     1.89   3.86840
 5.90000    1.87     1.89   3.86740
 5.95000    1.87     1.89   3.86630
 6.00000    1.87     1.89   3.86960
 6.05000    1.87     1.89   3.86600
 6.10000    1.87     1.89   3.86690
 6.15000    1.87     1.90   3.86350
 6.20000    1.87     1.90   3.86640
 6.25000    1.87     1.90   3.86490
 6.30000    1.87     1.90   3.86550
 6.35000    1.87     1.90   3.86360
 6.40000    1.87     1.90   3.86310
 6.45000    1.87     1.90   3.86190
 6.50000    1.87     1.90   3.85910
 6.55000    1.87     1.90   3.85940
 6.60000    1.87     1.90   3.85900
 6.65000    1.87     1.90   3.85780
 6.70000    1.87     1.90   3.85570
 6.75000    1.87     1.90   3.85550
 6.80000    1.88     1.90   3.85590
 6.85000    1.88     1.90   3.85510
 6.90000    1.88     1.90   3.85030
 6.95000    1.88     1.90   3.85630
 7.00000    1.88     1.90   3.85380
 7.00000    1.88     1.90   3.85290
 6.95000    1.88     1.91   3.85130
 6.90000    1.88     1.91   3.85300
 6.85000    1.88     1.91   3.85450
 6.80000    1.88     1.91   3.85460
 6.75000    1.88     1.91   3.85390
 6.70000    1.88     1.91   3.85420
 6.65000    1.88     1.91   3.85420
 6.60000    1.88     1.91   3.85700
 6.55000    1.88     1.91   3.85690
 6.50000    1.88     1.91   3.85770
 6.45000    1.88     1.91   3.85780
 6.40000    1.88     1.91   3.85830
 6.35000    1.88     1.90   3.85660
 6.30000    1.88     1.90   3.85980
 6.25000    1.88     1.90   3.85710
 6.20000    1.88     1.90   3.86180
 6.15000    1.88     1.90   3.85740
 6.10000    1.88     1.90   3.85780
 6.05000    1.88     1.90   3.85630
 6.00000    1.88     1.90   3.85860
 5.95000    1.88     1.90   3.85760
 5.90000    1.88     1.90   3.85930
 5.85000    1.88     1.90   3.86230
 5.80000    1.88     1.90   3.85800
 5.75000    1.88     1.90   3.85930
 5.70000    1.88     1.90   3.86110
 5.65000    1.88     1.90   3.85900
 5.60000    1.88     1.90   3.86110
 5.55000    1.88     1.90   3.86140
 5.50000    1.88     1.90   3.86340
 5.45000    1.88     1.90   3.86140
 5.40000    1.87     1.90   3.86300
 5.35000    1.87     1.90   3.86270
 5.30000    1.87     1.90   3.86220
 5.25000    1.87     1.90   3.86380
 5.20000    1.87     1.90   3.86360
 5.15000    1.87     1.90   3.86540
 5.10000    1.87     1.90   3.86570
 5.05000    1.87     1.90   3.86510
 5.00000    1.87     1.90   3.86500
 4.95000    1.87     1.90   3.86620
 4.90000    1.87     1.89   3.86570
 4.85000    1.87     1.89   3.86780
 4.80000    1.87     1.89   3.86810
 4.75000    1.87     1.89   3.86890
 4.70000    1.87     1.89   3.86960
 4.65000    1.87     1.89   3.86730
 4.60000    1.87     1.89   3.86940
 4.55000    1.87     1.89   3.86890
 4.50000    1.87     1.89   3.87350
 4.45000    1.87     1.89   3.87050
 4.40000    1.87     1.89   3.86850
 4.35000    1.87     1.89   3.87110
 4.30000    1.87     1.89   3.87310
 4.25000    1.87     1.89   3.87270
 4.20000    1.87     1.89   3.87110
 4.15000    1.87     1.89   3.87230
 4.10000    1.87     1.89   3.87370
 4.05000    1.87     1.89   3.87460
 4.00000    1.87     1.89   3.87700
 3.95000    1.87     1.89   3.87780
 3.90000    1.87     1.89   3.87720
 3.85000    1.87     1.89   3.87880
 3.80000    1.87     1.89   3.87850
 3.75000    1.87     1.88   3.87900
 3.70000    1.87     1.88   3.87530
 3.65000    1.87     1.88   3.87800
 3.60000    1.87     1.88   3.87890
 3.55000    1.86     1.88   3.87930
 3.50000    1.86     1.88   3.87900
 3.45000    1.86     1.88   3.87800
 3.40000    1.86     1.88   3.88060
 3.35000    1.86     1.88   3.87920
 3.30000    1.86     1.88   3.87890
 3.25000    1.86     1.88   3.87870
 3.20000    1.86     1.88   3.87680
 3.15000    1.86     1.88   3.87900
 3.10000    1.86     1.88   3.87900
 3.05000    1.86     1.88   3.87890
 3.00000    1.86     1.88   3.87830
 2.95000    1.86     1.88   3.87320
 2.90000    1.86     1.88   3.87250
 2.85000    1.86     1.88   3.87090
 2.80000    1.86     1.88   3.86900
 2.75000    1.86     1.88   3.86730
 2.70000    1.86     1.88   3.86990
 2.65000    1.86     1.88   3.86850
 2.60000    1.86     1.88   3.87140
 2.55000    1.86     1.88   3.87100
 2.50000    1.86     1.88   3.87470
 2.45000    1.86     1.88   3.87850
 2.40000    1.86     1.88   3.88060
 2.35000    1.86     1.87   3.87320
 2.30000    1.86     1.87   3.87450
 2.25000    1.85     1.87   3.86880
 2.20000    1.85     1.87   3.86730
 2.15000    1.85     1.87   3.86470
 2.10000    1.85     1.87   3.86880
 2.05000    1.85     1.87   3.86970
 2.00000    1.85     1.87   3.87160
 1.95000    1.85     1.87   3.87290
 1.90000    1.85     1.87   3.87590
 1.85000    1.85     1.87   3.87740
 1.80000    1.85     1.87   3.87130
 1.75000    1.85     1.87   3.86580
 1.70000    1.85     1.87   3.86670
 1.65000    1.85     1.87   3.86550
 1.60000    1.85     1.87   3.86420
 1.55000    1.85     1.87   3.86110
 1.50000    1.85     1.87   3.85670
 1.45000    1.84     1.87   3.85400
 1.40000    1.84     1.87   3.85180
 1.35000    1.84     1.87   3.85520
 1.30000    1.84     1.87   3.86200
 1.25000    1.84     1.86   3.86530
 1.20000    1.84     1.86   3.86720
 1.15000    1.84     1.86   3.86220
 1.10000    1.84     1.86   3.86080
 1.05000    1.84     1.86   3.86120
 1.00000    1.84     1.86   3.86220
 0.95000    1.84     1.86   3.86110
 0.90000    1.84     1.86   3.85950
 0.85000    1.84     1.86   3.85650
 0.80000    1.84     1.86   3.85510
 0.75000    1.84     1.86   3.85320
 0.70000    1.84     1.86   3.85500
 0.65000    1.84     1.86   3.85610
 0.60000    1.83     1.86   3.85760
 0.55000    1.83     1.86   3.85820
 0.50000    1.83     1.86   3.85710
 0.45000    1.83     1.86   3.86000
 0.40000    1.83     1.86   3.86300
 0.35000    1.83     1.86   3.86090
 0.30000    1.83     1.86   3.85790
 0.25000    1.83     1.86   3.85920
 0.20000    1.83     1.86   3.86270
 0.15000    1.83     1.86   3.86200
 0.10000    1.83     1.86   3.86310
 0.05000    1.83     1.86   3.86190
-0.00000    1.83     1.86   3.86220
