 Field[T] Tsmpl[K] Tcntr[K] Signal
 0.00000    1.85     1.88   3.82680
 0.05000    1.85     1.88   3.82750
 0.10000    1.85     1.88   3.82590
 0.15000    1.85     1.88   3.82570
 0.20000    1.85     1.88   3.82830
 0.25000    1.85     1.88   3.82520
 0.30000    1.85     1.88   3.83320
 0.35000    1.85     1.88   3.82550
 0.40000    1.85     1.88   3.82470
 0.45000    1.85     1.88   3.82250
 0.50000    1.85     1.88   3.82750
 0.55000    1.85     1.88   3.82600
 0.60000    1.85     1.88   3.82580
 0.65000    1.85     1.88   3.83130
 0.70000    1.85     1.88   3.82820
 0.75000    1.85     1.88   3.82670
 0.80000    1.85     1.88   3.82540
 0.85000    1.85     1.88   3.82190
 0.90000    1.85     1.88   3.82360
 0.95000    1.85     1.88   3.81970
 1.00000    1.85     1.87   3.82470
 1.05000    1.85     1.87   3.82160
 1.10000    1.85     1.87   3.82590
 1.15000    1.85     1.87   3.82580
 1.20000    1.85     1.87   3.82790
 1.25000    1.85     1.87   3.82560
 1.30000    1.85     1.87   3.82370
 1.35000    1.85     1.87   3.82690
 1.40000    1.85     1.87   3.83320
 1.45000    1.85     1.87   3.83190
 1.50000    1.85     1.88   3.83900
 1.55000    1.85     1.88   3.83170
 1.60000    1.85     1.88   3.83650
 1.65000    1.85     1.88   3.83170
 1.70000    1.85     1.88   3.83050
 1.75000    1.85     1.88   3.83330
 1.80000    1.85     1.88   3.83620
 1.85000    1.86     1.88   3.83100
 1.90000    1.86     1.88   3.83240
 1.95000    1.86     1.88   3.83060
 2.00000    1.86     1.88   3.82780
 2.05000    1.86     1.88   3.82940
 2.10000    1.86     1.88   3.83060
 2.15000    1.86     1.88   3.82810
 2.20000    1.86     1.88   3.83030
 2.25000    1.86     1.88   3.83430
 2.30000    1.86     1.88   3.82810
 2.35000    1.86     1.88   3.83030
 2.40000    1.86     1.88   3.82880
 2.45000    1.86     1.88   3.83330
 2.50000    1.86     1.88   3.82950
 2.55000    1.86     1.88   3.82920
 2.60000    1.86     1.88   3.82670
 2.65000    1.86     1.88   3.82330
 2.70000    1.87     1.88   3.81840
 2.75000    1.87     1.88   3.82160
 2.80000    1.87     1.88   3.81940
 2.85000    1.87     1.89   3.82230
 2.90000    1.87     1.89   3.82380
 2.95000    1.87     1.89   3.82060
 3.00000    1.87     1.89   3.81870
 3.05000    1.87     1.89   3.82100
 3.10000    1.87     1.89   3.82020
 3.15000    1.87     1.89   3.82490
 3.20000    1.87     1.89   3.82000
 3.25000    1.87     1.89   3.82700
 3.30000    1.87     1.89   3.82420
 3.35000    1.87     1.89   3.82630
 3.40000    1.87     1.89   3.83200
 3.45000    1.87     1.89   3.83150
 3.50000    1.87     1.89   3.83130
 3.55000    1.87     1.89   3.83810
 3.60000    1.87     1.89   3.83870
 3.65000    1.88     1.89   3.83970
 3.70000    1.88     1.89   3.83960
 3.75000    1.88     1.89   3.83990
 3.80000    1.88     1.90   3.84530
 3.85000    1.88     1.90   3.84180
 3.90000    1.88     1.90   3.84700
 3.95000    1.88     1.90   3.84720
 4.00000    1.88     1.90   3.84800
 4.05000    1.88     1.90   3.84880
 4.10000    1.88     1.90   3.84730
 4.15000    1.88     1.90   3.84990
 4.20000    1.88     1.90   3.84900
 4.25000    1.88     1.90   3.84530
 4.30000    1.88     1.90   3.85150
 4.35000    1.88     1.90   3.84930
 4.40000    1.88     1.90   3.84660
 4.45000    1.88     1.90   3.84820
 4.50000    1.88     1.90   3.85530
 4.55000    1.88     1.90   3.84650
 4.60000    1.88     1.90   3.85020
 4.65000    1.88     1.90   3.84840
 4.70000    1.88     1.90   3.84790
 4.75000    1.88     1.90   3.84760
 4.80000    1.88     1.91   3.84610
 4.85000    1.88     1.91   3.84720
 4.90000    1.88     1.91   3.84400
 4.95000    1.89     1.91   3.84810
 5.00000    1.89     1.91   3.84280
 5.00000    1.89     1.91   3.84600
 4.95000    1.89     1.91   3.84420
 4.90000    1.89     1.91   3.84390
 4.85000    1.89     1.91   3.84300
 4.80000    1.89     1.91   3.84620
 4.75000    1.89     1.91   3.84930
 4.70000    1.89     1.91   3.84990
 4.65000    1.89     1.91   3.84700
 4.60000    1.88     1.91   3.84780
 4.55000    1.88     1.91   3.84880
 4.50000    1.88     1.91   3.84990
 4.45000    1.88     1.91   3.85620
 4.40000    1.88     1.91   3.85440
 4.35000    1.88     1.90   3.85460
 4.30000    1.88     1.90   3.85210
 4.25000    1.88     1.90   3.85530
 4.20000    1.88     1.90   3.85820
 4.15000    1.88     1.90   3.85140
 4.10000    1.88     1.90   3.85720
 4.05000    1.88     1.90   3.85210
 4.00000    1.88     1.90   3.85370
 3.95000    1.88     1.90   3.85150
 3.90000    1.88     1.90   3.85580
 3.85000    1.88     1.90   3.85010
 3.80000    1.88     1.90   3.85100
 3.75000    1.88     1.90   3.84930
 3.70000    1.88     1.90   3.84710
 3.65000    1.88     1.90   3.84520
 3.60000    1.88     1.90   3.83990
 3.55000    1.88     1.90   3.83960
 3.50000    1.88     1.90   3.84090
 3.45000    1.88     1.90   3.84010
 3.40000    1.88     1.90   3.83630
 3.35000    1.88     1.90   3.83550
 3.30000    1.88     1.90   3.83390
 3.25000    1.88     1.90   3.83810
 3.20000    1.88     1.90   3.83550
 3.15000    1.87     1.89   3.83190
 3.10000    1.87     1.89   3.83280
 3.05000    1.87     1.89   3.83240
 3.00000    1.87     1.89   3.83530
 2.95000    1.87     1.89   3.83640
 2.90000    1.87     1.89   3.84290
 2.85000    1.87     1.89   3.84260
 2.80000    1.87     1.89   3.84320
 2.75000    1.87     1.89   3.84540
 2.70000    1.87     1.89   3.84040
 2.65000    1.87     1.89   3.84090
 2.60000    1.87     1.89   3.84370
 2.55000    1.87     1.89   3.84500
 2.50000    1.87     1.89   3.84860
 2.45000    1.87     1.89   3.85330
 2.40000    1.87     1.89   3.84990
 2.35000    1.87     1.89   3.85270
 2.30000    1.87     1.89   3.84930
 2.25000    1.87     1.88   3.85120
 2.20000    1.87     1.88   3.84650
 2.15000    1.87     1.88   3.85300
 2.10000    1.86     1.88   3.85330
 2.05000    1.86     1.88   3.84730
 2.00000    1.86     1.88   3.84900
 1.95000    1.86     1.88   3.84410
 1.90000    1.86     1.88   3.84590
 1.85000    1.86     1.88   3.84770
 1.80000    1.86     1.88   3.84950
 1.75000    1.86     1.88   3.85130
 1.70000    1.86     1.88   3.85120
 1.65000    1.86     1.88   3.85180
 1.60000    1.86     1.88   3.85070
 1.55000    1.86     1.88   3.85260
 1.50000    1.86     1.88   3.84880
 1.45000    1.86     1.88   3.84950
 1.40000    1.86     1.88   3.84820
 1.35000    1.86     1.88   3.84610
 1.30000    1.86     1.88   3.84020
 1.25000    1.86     1.88   3.83890
 1.20000    1.86     1.88   3.83620
 1.15000    1.86     1.88   3.83860
 1.10000    1.86     1.88   3.84260
 1.05000    1.86     1.88   3.83570
 1.00000    1.85     1.88   3.83990
 0.95000    1.85     1.88   3.84000
 0.90000    1.85     1.88   3.84240
 0.85000    1.85     1.88   3.83930
 0.80000    1.85     1.88   3.83880
 0.75000    1.85     1.88   3.84200
 0.70000    1.85     1.88   3.83930
 0.65000    1.85     1.88   3.83780
 0.60000    1.85     1.88   3.83530
 0.55000    1.85     1.88   3.83600
 0.50000    1.85     1.88   3.83880
 0.45000    1.85     1.88   3.83910
 0.40000    1.85     1.88   3.83790
 0.35000    1.85     1.88   3.83290
 0.30000    1.85     1.88   3.83640
 0.25000    1.85     1.88   3.83880
 0.20000    1.85     1.88   3.84010
 0.15000    1.85     1.88   3.83420
 0.10000    1.85     1.88   3.83370
 0.05000    1.85     1.88   3.83710
-0.00000    1.85     1.88   3.84140
