 Field[T] Tsmpl[K] Tcntr[K] Signal   Mirror[MM]
 0.00000    1.82     1.82   0.61682  -9.0073
 0.05000    1.82     1.82   0.61726  -9.0073
 0.10000    1.82     1.82   0.61753  -9.0073
 0.15000    1.82     1.82   0.61716  -9.0072
 0.20000    1.82     1.82   0.61690  -9.0072
 0.25000    1.82     1.82   0.61614  -9.0072
 0.30000    1.82     1.82   0.61690  -9.0072
 0.35000    1.82     1.82   0.61648  -9.0072
 0.40000    1.82     1.82   0.61589  -9.0071
 0.45000    1.82     1.82   0.61517  -9.0071
 0.50000    1.82     1.82   0.61479  -9.0070
 0.55000    1.82     1.82   0.61487  -9.0070
 0.60000    1.82     1.82   0.61459  -9.0071
 0.65000    1.82     1.82   0.61381  -9.0071
 0.70000    1.82     1.82   0.61396  -9.0069
 0.75000    1.82     1.82   0.61408  -9.0070
 0.80000    1.82     1.82   0.61400  -9.0069
 0.85000    1.82     1.82   0.61310  -9.0068
 0.90000    1.82     1.82   0.61200  -9.0070
 0.95000    1.82     1.82   0.61112  -9.0071
 1.00000    1.82     1.82   0.61057  -9.0071
 1.05000    1.82     1.82   0.61095  -9.0071
 1.10000    1.82     1.82   0.61068  -9.0071
 1.15000    1.82     1.82   0.61038  -9.0067
 1.20000    1.82     1.82   0.60967  -9.0069
 1.25000    1.82     1.82   0.60957  -9.0071
 1.30000    1.82     1.82   0.60931  -9.0068
 1.35000    1.82     1.82   0.60849  -9.0070
 1.40000    1.82     1.82   0.60817  -9.0072
 1.45000    1.82     1.82   0.60854  -9.0074
 1.50000    1.82     1.82   0.60751  -9.0074
 1.55000    1.82     1.82   0.60707  -9.0076
 1.60000    1.82     1.82   0.60649  -9.0076
 1.65000    1.82     1.82   0.60656  -9.0077
 1.70000    1.82     1.82   0.60670  -9.0079
 1.75000    1.82     1.82   0.60666  -9.0083
 1.80000    1.82     1.82   0.60651  -9.0083
 1.85000    1.82     1.82   0.60620  -9.0086
 1.90000    1.82     1.82   0.60566  -9.0085
 1.95000    1.82     1.82   0.60588  -9.0088
 2.00000    1.82     1.82   0.60549  -9.0088
 2.05000    1.82     1.82   0.60559  -9.0090
 2.10000    1.82     1.82   0.60565  -9.0093
 2.15000    1.82     1.82   0.60541  -9.0094
 2.20000    1.82     1.82   0.60571  -9.0094
 2.25000    1.82     1.82   0.60690  -9.0097
 2.30000    1.82     1.82   0.60632  -9.0097
 2.35000    1.82     1.82   0.60674  -9.0098
 2.40000    1.82     1.82   0.60607  -9.0100
 2.45000    1.82     1.82   0.60588  -9.0101
 2.50000    1.82     1.82   0.60669  -9.0098
 2.55000    1.82     1.82   0.60615  -9.0100
 2.60000    1.82     1.82   0.60643  -9.0103
 2.65000    1.82     1.82   0.60625  -9.0102
 2.70000    1.82     1.82   0.60678  -9.0102
 2.75000    1.82     1.82   0.60695  -9.0104
 2.80000    1.82     1.82   0.60810  -9.0105
 2.85000    1.82     1.82   0.60731  -9.0103
 2.90000    1.82     1.82   0.60615  -9.0103
 2.95000    1.82     1.82   0.60521  -9.0104
 3.00000    1.82     1.82   0.60538  -9.0105
 3.00000    1.82     1.82   0.60545  -9.0104
 2.95000    1.82     1.82   0.60615  -9.0104
 2.90000    1.82     1.82   0.60535  -9.0104
 2.85000    1.82     1.82   0.60496  -9.0106
 2.80000    1.82     1.82   0.60490  -9.0105
 2.75000    1.82     1.82   0.60476  -9.0107
 2.70000    1.82     1.82   0.60446  -9.0108
 2.65000    1.82     1.82   0.60399  -9.0107
 2.60000    1.82     1.82   0.60337  -9.0106
 2.55000    1.82     1.82   0.60313  -9.0103
 2.50000    1.82     1.82   0.60429  -9.0103
 2.45000    1.82     1.82   0.60410  -9.0102
 2.40000    1.82     1.82   0.60396  -9.0103
 2.35000    1.82     1.82   0.60348  -9.0102
 2.30000    1.82     1.82   0.60433  -9.0103
 2.25000    1.82     1.82   0.60414  -9.0101
 2.20000    1.82     1.82   0.60361  -9.0099
 2.15000    1.82     1.82   0.60303  -9.0099
 2.10000    1.82     1.82   0.60295  -9.0095
 2.05000    1.82     1.82   0.60399  -9.0097
 2.00000    1.82     1.82   0.60326  -9.0093
 1.95000    1.82     1.82   0.60411  -9.0093
 1.90000    1.82     1.82   0.60393  -9.0091
 1.85000    1.82     1.82   0.60399  -9.0090
 1.80000    1.82     1.82   0.60442  -9.0089
 1.75000    1.82     1.82   0.60451  -9.0086
 1.70000    1.82     1.82   0.60552  -9.0086
 1.65000    1.82     1.82   0.60482  -9.0083
 1.60000    1.82     1.82   0.60489  -9.0082
 1.55000    1.82     1.82   0.60474  -9.0082
 1.50000    1.82     1.82   0.60542  -9.0080
 1.45000    1.82     1.82   0.60658  -9.0080
 1.40000    1.82     1.82   0.60753  -9.0078
 1.35000    1.82     1.82   0.60782  -9.0079
 1.30000    1.82     1.82   0.60824  -9.0075
 1.25000    1.82     1.82   0.60897  -9.0074
 1.20000    1.82     1.82   0.60961  -9.0073
 1.15000    1.82     1.82   0.60987  -9.0074
 1.10000    1.82     1.82   0.61020  -9.0071
 1.05000    1.82     1.82   0.61120  -9.0072
 1.00000    1.82     1.82   0.61181  -9.0072
 0.95000    1.82     1.82   0.61301  -9.0073
 0.90000    1.82     1.82   0.61327  -9.0073
 0.85000    1.82     1.82   0.61420  -9.0072
 0.80000    1.82     1.82   0.61550  -9.0071
 0.75000    1.82     1.82   0.61670  -9.0073
 0.70000    1.82     1.82   0.61657  -9.0072
 0.65000    1.82     1.82   0.61651  -9.0072
 0.60000    1.82     1.82   0.61620  -9.0073
 0.55000    1.82     1.82   0.61725  -9.0073
 0.50000    1.82     1.82   0.61677  -9.0074
 0.45000    1.82     1.82   0.61672  -9.0073
 0.40000    1.82     1.82   0.61675  -9.0071
 0.35000    1.82     1.82   0.61821  -9.0074
 0.30000    1.82     1.82   0.61731  -9.0073
 0.25000    1.82     1.82   0.61723  -9.0073
 0.20000    1.82     1.82   0.61804  -9.0073
 0.15000    1.82     1.82   0.61919  -9.0074
 0.10000    1.82     1.82   0.61868  -9.0072
 0.05000    1.82     1.82   0.61774  -9.0070
 -0.00000    1.82     1.82   0.61772  -9.0070
