 Field[T] Tsmpl[K] Tcntr[K] Signal   Mirror[MM]
 0.00000    1.79     1.79   0.20109  -8.9443
 0.05000    1.79     1.79   0.20115  -8.9445
 0.10000    1.79     1.79   0.20095  -8.9436
 0.15000    1.79     1.79   0.20080  -8.9439
 0.20000    1.79     1.79   0.20084  -8.9444
 0.25000    1.79     1.79   0.20085  -8.9448
 0.30000    1.79     1.79   0.20079  -8.9443
 0.35000    1.79     1.79   0.20066  -8.9443
 0.40000    1.79     1.79   0.20061  -8.9444
 0.45000    1.79     1.79   0.20054  -8.9442
 0.50000    1.79     1.79   0.20047  -8.9441
 0.55000    1.79     1.79   0.20043  -8.9440
 0.60000    1.79     1.79   0.20040  -8.9441
 0.65000    1.79     1.79   0.20032  -8.9442
 0.70000    1.79     1.79   0.20027  -8.9443
 0.75000    1.79     1.79   0.20018  -8.9442
 0.80000    1.79     1.79   0.20010  -8.9442
 0.85000    1.79     1.79   0.20000  -8.9445
 0.90000    1.79     1.79   0.19995  -8.9444
 0.95000    1.79     1.79   0.19985  -8.9441
 1.00000    1.79     1.79   0.19960  -8.9439
 1.05000    1.79     1.79   0.19946  -8.9440
 1.10000    1.79     1.79   0.19936  -8.9440
 1.15000    1.79     1.79   0.19919  -8.9440
 1.20000    1.79     1.79   0.19907  -8.9440
 1.25000    1.79     1.79   0.19902  -8.9441
 1.30000    1.79     1.79   0.19889  -8.9442
 1.35000    1.79     1.79   0.19882  -8.9442
 1.40000    1.79     1.79   0.19870  -8.9442
 1.45000    1.79     1.79   0.19858  -8.9443
 1.50000    1.79     1.79   0.19847  -8.9445
 1.55000    1.79     1.79   0.19840  -8.9442
 1.60000    1.79     1.79   0.19833  -8.9444
 1.65000    1.79     1.79   0.19833  -8.9444
 1.70000    1.79     1.79   0.19830  -8.9445
 1.75000    1.79     1.79   0.19820  -8.9446
 1.80000    1.79     1.79   0.19813  -8.9447
 1.85000    1.79     1.79   0.19800  -8.9448
 1.90000    1.79     1.79   0.19772  -8.9442
 1.95000    1.79     1.79   0.19777  -8.9445
 2.00000    1.79     1.79   0.19762  -8.9443
 2.05000    1.79     1.79   0.19765  -8.9442
 2.10000    1.79     1.79   0.19757  -8.9446
 2.15000    1.79     1.79   0.19762  -8.9445
 2.20000    1.79     1.79   0.19762  -8.9449
 2.25000    1.79     1.79   0.19748  -8.9447
 2.30000    1.79     1.79   0.19759  -8.9450
 2.35000    1.79     1.79   0.19759  -8.9449
 2.40000    1.79     1.79   0.19752  -8.9452
 2.45000    1.79     1.79   0.19744  -8.9453
 2.50000    1.79     1.79   0.19744  -8.9454
 2.55000    1.79     1.79   0.19749  -8.9457
 2.60000    1.79     1.79   0.19750  -8.9460
 2.65000    1.79     1.79   0.19746  -8.9457
 2.70000    1.79     1.79   0.19740  -8.9456
 2.75000    1.79     1.79   0.19724  -8.9451
 2.80000    1.79     1.79   0.19721  -8.9454
 2.85000    1.79     1.79   0.19731  -8.9456
 2.90000    1.79     1.79   0.19731  -8.9456
 2.95000    1.79     1.79   0.19727  -8.9455
 3.00000    1.79     1.79   0.19729  -8.9456
 3.05000    1.79     1.79   0.19727  -8.9457
 3.10000    1.79     1.79   0.19718  -8.9456
 3.15000    1.79     1.79   0.19717  -8.9457
 3.20000    1.79     1.79   0.19715  -8.9456
 3.25000    1.79     1.79   0.19714  -8.9458
 3.30000    1.79     1.79   0.19703  -8.9455
 3.35000    1.79     1.79   0.19705  -8.9456
 3.40000    1.79     1.79   0.19706  -8.9458
 3.45000    1.79     1.79   0.19702  -8.9457
 3.50000    1.79     1.79   0.19699  -8.9456
 3.55000    1.79     1.79   0.19689  -8.9456
 3.60000    1.79     1.79   0.19685  -8.9457
 3.65000    1.79     1.79   0.19684  -8.9457
 3.70000    1.79     1.79   0.19677  -8.9459
 3.75000    1.79     1.79   0.19680  -8.9458
 3.80000    1.79     1.79   0.19683  -8.9456
 3.85000    1.79     1.79   0.19680  -8.9458
 3.90000    1.79     1.79   0.19671  -8.9458
 3.95000    1.79     1.79   0.19671  -8.9456
 4.00000    1.79     1.79   0.19663  -8.9457
 4.00000    1.79     1.79   0.19659  -8.9456
 3.95000    1.79     1.79   0.19653  -8.9456
 3.90000    1.79     1.79   0.19650  -8.9455
 3.85000    1.79     1.79   0.19659  -8.9458
 3.80000    1.79     1.79   0.19652  -8.9457
 3.75000    1.79     1.79   0.19658  -8.9457
 3.70000    1.79     1.79   0.19664  -8.9455
 3.65000    1.79     1.79   0.19663  -8.9456
 3.60000    1.79     1.79   0.19661  -8.9456
 3.55000    1.79     1.79   0.19660  -8.9455
 3.50000    1.79     1.79   0.19663  -8.9456
 3.45000    1.79     1.79   0.19665  -8.9457
 3.40000    1.79     1.79   0.19659  -8.9456
 3.35000    1.79     1.79   0.19663  -8.9458
 3.30000    1.79     1.79   0.19669  -8.9457
 3.25000    1.79     1.79   0.19663  -8.9456
 3.20000    1.79     1.79   0.19673  -8.9455
 3.15000    1.79     1.79   0.19670  -8.9457
 3.10000    1.79     1.79   0.19663  -8.9457
 3.05000    1.79     1.79   0.19659  -8.9457
 3.00000    1.79     1.79   0.19662  -8.9455
 2.95000    1.79     1.79   0.19659  -8.9454
 2.90000    1.79     1.79   0.19664  -8.9453
 2.85000    1.79     1.79   0.19659  -8.9454
 2.80000    1.79     1.79   0.19659  -8.9455
 2.75000    1.79     1.79   0.19661  -8.9455
 2.70000    1.79     1.79   0.19648  -8.9452
 2.65000    1.79     1.79   0.19645  -8.9453
 2.60000    1.79     1.79   0.19645  -8.9450
 2.55000    1.79     1.79   0.19649  -8.9450
 2.50000    1.79     1.79   0.19647  -8.9452
 2.45000    1.79     1.79   0.19650  -8.9453
 2.40000    1.79     1.79   0.19657  -8.9456
 2.35000    1.79     1.79   0.19653  -8.9452
 2.30000    1.79     1.79   0.19653  -8.9450
 2.25000    1.79     1.79   0.19648  -8.9447
 2.20000    1.79     1.79   0.19640  -8.9445
 2.15000    1.79     1.79   0.19650  -8.9446
 2.10000    1.79     1.79   0.19648  -8.9447
 2.05000    1.79     1.79   0.19655  -8.9446
 2.00000    1.79     1.79   0.19647  -8.9445
 1.95000    1.79     1.79   0.19662  -8.9445
 1.90000    1.79     1.79   0.19662  -8.9443
 1.85000    1.79     1.79   0.19663  -8.9442
 1.80000    1.79     1.79   0.19669  -8.9443
 1.75000    1.79     1.79   0.19668  -8.9442
 1.70000    1.79     1.79   0.19675  -8.9440
 1.65000    1.79     1.79   0.19687  -8.9441
 1.60000    1.79     1.79   0.19688  -8.9441
 1.55000    1.79     1.79   0.19701  -8.9439
 1.50000    1.79     1.79   0.19707  -8.9438
 1.45000    1.79     1.79   0.19713  -8.9439
 1.40000    1.79     1.79   0.19718  -8.9437
 1.35000    1.79     1.79   0.19731  -8.9438
 1.30000    1.79     1.79   0.19728  -8.9436
 1.25000    1.79     1.79   0.19736  -8.9436
 1.20000    1.79     1.79   0.19738  -8.9436
 1.15000    1.79     1.79   0.19762  -8.9434
 1.10000    1.79     1.79   0.19763  -8.9436
 1.05000    1.79     1.79   0.19767  -8.9435
 1.00000    1.79     1.79   0.19779  -8.9434
 0.95000    1.79     1.79   0.19788  -8.9434
 0.90000    1.79     1.79   0.19807  -8.9435
 0.85000    1.79     1.79   0.19815  -8.9436
 0.80000    1.79     1.79   0.19820  -8.9437
 0.75000    1.79     1.79   0.19826  -8.9437
 0.70000    1.79     1.79   0.19839  -8.9436
 0.65000    1.79     1.79   0.19840  -8.9435
 0.60000    1.79     1.79   0.19841  -8.9436
 0.55000    1.79     1.79   0.19848  -8.9436
 0.50000    1.79     1.79   0.19840  -8.9434
 0.45000    1.79     1.79   0.19843  -8.9435
 0.40000    1.79     1.79   0.19854  -8.9433
 0.35000    1.79     1.79   0.19854  -8.9433
 0.30000    1.79     1.79   0.19861  -8.9435
 0.25000    1.79     1.79   0.19863  -8.9434
 0.20000    1.79     1.79   0.19872  -8.9434
 0.15000    1.79     1.79   0.19876  -8.9434
 0.10000    1.79     1.79   0.19882  -8.9432
 0.05000    1.79     1.79   0.19881  -8.9432
 -0.00000    1.79     1.79   0.19885  -8.9432
