 Field[T] Tsmpl[K] Tcntr[K] Signal   Mirror[MM]
 0.00000    1.80     1.80   0.29208  -9.0211
 0.05000    1.80     1.80   0.29224  -9.0210
 0.10000    1.80     1.80   0.29298  -9.0211
 0.15000    1.80     1.80   0.29358  -9.0211
 0.20000    1.80     1.80   0.29350  -9.0213
 0.25000    1.80     1.80   0.29320  -9.0213
 0.30000    1.80     1.80   0.29298  -9.0213
 0.35000    1.80     1.80   0.29253  -9.0212
 0.40000    1.80     1.80   0.29264  -9.0213
 0.45000    1.80     1.80   0.29283  -9.0214
 0.50000    1.80     1.80   0.29287  -9.0213
 0.55000    1.80     1.80   0.29290  -9.0212
 0.60000    1.80     1.80   0.29316  -9.0211
 0.65000    1.80     1.80   0.29316  -9.0211
 0.70000    1.80     1.80   0.29311  -9.0211
 0.75000    1.80     1.80   0.29311  -9.0212
 0.80000    1.80     1.80   0.29336  -9.0211
 0.85000    1.80     1.80   0.29354  -9.0212
 0.90000    1.80     1.80   0.29369  -9.0214
 0.95000    1.80     1.80   0.29365  -9.0214
 1.00000    1.80     1.80   0.29355  -9.0214
 1.05000    1.80     1.80   0.29394  -9.0213
 1.10000    1.80     1.80   0.29431  -9.0210
 1.15000    1.80     1.80   0.29467  -9.0212
 1.20000    1.80     1.80   0.29433  -9.0212
 1.25000    1.80     1.80   0.29372  -9.0210
 1.30000    1.80     1.80   0.29343  -9.0209
 1.35000    1.80     1.80   0.29342  -9.0211
 1.40000    1.80     1.80   0.29409  -9.0210
 1.45000    1.80     1.80   0.29379  -9.0208
 1.50000    1.80     1.80   0.29333  -9.0210
 1.55000    1.80     1.80   0.29336  -9.0210
 1.60000    1.80     1.80   0.29305  -9.0212
 1.65000    1.80     1.80   0.29303  -9.0210
 1.70000    1.80     1.80   0.29332  -9.0211
 1.75000    1.80     1.80   0.29342  -9.0209
 1.80000    1.80     1.80   0.29369  -9.0209
 1.85000    1.80     1.80   0.29339  -9.0208
 1.90000    1.80     1.80   0.29329  -9.0210
 1.95000    1.80     1.80   0.29328  -9.0210
 2.00000    1.80     1.80   0.29355  -9.0209
 2.05000    1.80     1.80   0.29355  -9.0209
 2.10000    1.80     1.80   0.29335  -9.0208
 2.15000    1.80     1.80   0.29316  -9.0208
 2.20000    1.80     1.80   0.29325  -9.0207
 2.25000    1.80     1.80   0.29328  -9.0204
 2.30000    1.80     1.80   0.29278  -9.0209
 2.35000    1.80     1.80   0.29281  -9.0208
 2.40000    1.80     1.80   0.29288  -9.0207
 2.45000    1.80     1.80   0.29310  -9.0207
 2.50000    1.80     1.80   0.29292  -9.0206
 2.55000    1.80     1.80   0.29260  -9.0207
 2.60000    1.80     1.80   0.29264  -9.0208
 2.65000    1.80     1.80   0.29261  -9.0209
 2.70000    1.80     1.80   0.29281  -9.0208
 2.75000    1.80     1.80   0.29262  -9.0208
 2.80000    1.80     1.80   0.29257  -9.0208
 2.85000    1.80     1.80   0.29203  -9.0206
 2.90000    1.80     1.80   0.29237  -9.0207
 2.95000    1.80     1.80   0.29229  -9.0206
 3.00000    1.80     1.80   0.29211  -9.0207
 3.05000    1.80     1.80   0.29281  -9.0208
 3.10000    1.80     1.80   0.29294  -9.0207
 3.15000    1.80     1.80   0.29275  -9.0207
 3.20000    1.80     1.80   0.29247  -9.0208
 3.25000    1.80     1.80   0.29228  -9.0207
 3.30000    1.80     1.80   0.29196  -9.0206
 3.35000    1.80     1.80   0.29190  -9.0207
 3.40000    1.80     1.80   0.29186  -9.0206
 3.45000    1.80     1.80   0.29199  -9.0207
 3.50000    1.80     1.80   0.29182  -9.0207
 3.55000    1.80     1.80   0.29184  -9.0205
 3.60000    1.80     1.80   0.29222  -9.0207
 3.65000    1.80     1.80   0.29242  -9.0207
 3.70000    1.80     1.80   0.29183  -9.0206
 3.75000    1.80     1.80   0.29164  -9.0209
 3.80000    1.80     1.80   0.29202  -9.0206
 3.85000    1.80     1.80   0.29181  -9.0208
 3.90000    1.80     1.80   0.29137  -9.0205
 3.95000    1.80     1.80   0.29119  -9.0205
 4.00000    1.80     1.80   0.29133  -9.0204
 4.05000    1.80     1.80   0.29190  -9.0205
 4.10000    1.80     1.80   0.29137  -9.0205
 4.15000    1.80     1.80   0.29122  -9.0204
 4.20000    1.80     1.80   0.29097  -9.0204
 4.25000    1.80     1.80   0.29059  -9.0204
 4.30000    1.80     1.80   0.29028  -9.0206
 4.35000    1.80     1.80   0.29040  -9.0206
 4.40000    1.80     1.80   0.29091  -9.0206
 4.45000    1.80     1.80   0.29088  -9.0206
 4.50000    1.80     1.80   0.29085  -9.0206
 4.55000    1.80     1.80   0.29104  -9.0207
 4.60000    1.80     1.80   0.29050  -9.0205
 4.65000    1.80     1.80   0.29005  -9.0205
 4.70000    1.80     1.80   0.29015  -9.0202
 4.75000    1.80     1.80   0.29031  -9.0203
 4.80000    1.80     1.80   0.29026  -9.0205
 4.85000    1.80     1.80   0.29000  -9.0204
 4.90000    1.80     1.80   0.28993  -9.0205
 4.95000    1.80     1.80   0.29024  -9.0206
 5.00000    1.80     1.80   0.28973  -9.0204
 5.00000    1.80     1.80   0.28977  -9.0202
 4.95000    1.80     1.80   0.28975  -9.0204
 4.90000    1.80     1.80   0.28973  -9.0202
 4.85000    1.80     1.80   0.29033  -9.0203
 4.80000    1.80     1.80   0.29041  -9.0202
 4.75000    1.80     1.80   0.29078  -9.0203
 4.70000    1.80     1.80   0.29060  -9.0202
 4.65000    1.80     1.80   0.29058  -9.0201
 4.60000    1.80     1.80   0.29111  -9.0201
 4.55000    1.80     1.80   0.29176  -9.0203
 4.50000    1.80     1.80   0.29221  -9.0204
 4.45000    1.80     1.80   0.29217  -9.0203
 4.40000    1.80     1.80   0.29216  -9.0203
 4.35000    1.80     1.80   0.29162  -9.0202
 4.30000    1.80     1.80   0.29069  -9.0201
 4.25000    1.80     1.80   0.29034  -9.0203
 4.20000    1.80     1.80   0.29053  -9.0204
 4.15000    1.80     1.80   0.29026  -9.0203
 4.10000    1.80     1.80   0.29063  -9.0203
 4.05000    1.80     1.80   0.29067  -9.0202
 4.00000    1.80     1.80   0.29082  -9.0202
 3.95000    1.80     1.80   0.29131  -9.0202
 3.90000    1.80     1.80   0.29111  -9.0203
 3.85000    1.80     1.80   0.29087  -9.0202
 3.80000    1.80     1.80   0.29102  -9.0203
 3.75000    1.80     1.80   0.29111  -9.0202
 3.70000    1.80     1.80   0.29127  -9.0202
 3.65000    1.80     1.80   0.29123  -9.0202
 3.60000    1.80     1.80   0.29116  -9.0202
 3.55000    1.80     1.80   0.29105  -9.0201
 3.50000    1.80     1.80   0.29100  -9.0199
 3.45000    1.80     1.80   0.29082  -9.0199
 3.40000    1.80     1.80   0.29091  -9.0198
 3.35000    1.80     1.80   0.29109  -9.0198
 3.30000    1.80     1.80   0.29115  -9.0199
 3.25000    1.80     1.80   0.29107  -9.0202
 3.20000    1.80     1.80   0.29072  -9.0201
 3.15000    1.80     1.80   0.29048  -9.0200
 3.10000    1.80     1.80   0.29021  -9.0198
 3.05000    1.80     1.80   0.29040  -9.0200
 3.00000    1.80     1.80   0.29042  -9.0200
 2.95000    1.80     1.80   0.29069  -9.0198
 2.90000    1.80     1.80   0.29147  -9.0198
 2.85000    1.80     1.80   0.29167  -9.0198
 2.80000    1.80     1.80   0.29215  -9.0198
 2.75000    1.80     1.80   0.29192  -9.0198
 2.70000    1.80     1.80   0.29208  -9.0198
 2.65000    1.80     1.80   0.29163  -9.0197
 2.60000    1.80     1.80   0.29203  -9.0198
 2.55000    1.80     1.80   0.29157  -9.0197
 2.50000    1.80     1.80   0.29169  -9.0197
 2.45000    1.80     1.80   0.29158  -9.0197
 2.40000    1.80     1.80   0.29129  -9.0199
 2.35000    1.80     1.80   0.29133  -9.0197
 2.30000    1.80     1.80   0.29178  -9.0197
 2.25000    1.80     1.80   0.29221  -9.0197
 2.20000    1.80     1.80   0.29236  -9.0197
 2.15000    1.80     1.80   0.29233  -9.0197
 2.10000    1.80     1.80   0.29241  -9.0197
 2.05000    1.80     1.80   0.29223  -9.0197
 2.00000    1.80     1.80   0.29263  -9.0198
 1.95000    1.80     1.80   0.29261  -9.0198
 1.90000    1.80     1.80   0.29273  -9.0199
 1.85000    1.80     1.80   0.29211  -9.0198
 1.80000    1.80     1.80   0.29191  -9.0198
 1.75000    1.80     1.80   0.29179  -9.0200
 1.70000    1.80     1.80   0.29220  -9.0199
 1.65000    1.80     1.80   0.29268  -9.0200
 1.60000    1.80     1.80   0.29234  -9.0199
 1.55000    1.80     1.80   0.29205  -9.0200
 1.50000    1.80     1.80   0.29191  -9.0200
 1.45000    1.80     1.80   0.29192  -9.0201
 1.40000    1.80     1.80   0.29238  -9.0199
 1.35000    1.80     1.80   0.29182  -9.0200
 1.30000    1.80     1.80   0.29176  -9.0200
 1.25000    1.80     1.80   0.29212  -9.0200
 1.20000    1.80     1.80   0.29260  -9.0201
 1.15000    1.80     1.80   0.29263  -9.0201
 1.10000    1.80     1.80   0.29278  -9.0200
 1.05000    1.80     1.80   0.29244  -9.0201
 1.00000    1.80     1.80   0.29272  -9.0199
 0.95000    1.80     1.80   0.29251  -9.0199
 0.90000    1.80     1.80   0.29251  -9.0201
 0.85000    1.80     1.80   0.29237  -9.0202
 0.80000    1.80     1.80   0.29221  -9.0201
 0.75000    1.80     1.80   0.29179  -9.0202
 0.70000    1.80     1.80   0.29186  -9.0203
 0.65000    1.80     1.80   0.29162  -9.0203
 0.60000    1.80     1.80   0.29170  -9.0202
 0.55000    1.80     1.80   0.29181  -9.0201
 0.50000    1.80     1.80   0.29186  -9.0202
 0.45000    1.80     1.80   0.29185  -9.0201
 0.40000    1.80     1.80   0.29242  -9.0203
 0.35000    1.80     1.80   0.29200  -9.0202
 0.30000    1.80     1.80   0.29188  -9.0201
 0.25000    1.80     1.80   0.29164  -9.0201
 0.20000    1.80     1.80   0.29157  -9.0201
 0.15000    1.80     1.80   0.29127  -9.0201
 0.10000    1.80     1.80   0.29093  -9.0203
 0.05000    1.80     1.80   0.29103  -9.0201
 -0.00000    1.80     1.80   0.29130  -9.0202
