 Field[T] Tsmpl[K] Tcntr[K] Signal Mirror[MM] RefSignal
 4.00000    5.03     3.03   2.16354  2.5847   4.02692
 3.95000    5.04     3.03   2.16073  2.5848   4.02317
 3.90000    5.05     3.04   2.15865  2.5849   4.02353
 3.85000    5.06     3.04   2.15612  2.5848   4.02152
 3.80000    5.07     3.03   2.15377  2.5849   4.01917
 3.75000    5.09     3.05   2.15136  2.5846   4.01869
 3.70000    5.10     3.06   2.14830  2.5848   4.01396
 3.65000    5.11     3.05   2.14697  2.5846   4.01215
 3.60000    5.12     3.05   2.14644  2.5844   4.01066
 3.55000    5.14     3.06   2.14438  2.5843   4.00746
 3.50000    5.15     3.05   2.14233  2.5842   4.00956
 3.45000    5.16     3.06   2.13903  2.5843   4.00597
 3.40000    5.18     3.06   2.13604  2.5846   4.00514
 3.35000    5.19     3.05   2.13503  2.5845   4.00375
 3.30000    5.20     3.05   2.13253  2.5843   4.00356
 3.25000    5.21     3.05   2.13002  2.5843   4.00194
 3.20000    5.22     3.06   2.12760  2.5843   4.00081
 3.15000    5.23     3.05   2.12531  2.5842   3.99836
 3.10000    5.24     3.06   2.12292  2.5843   3.99930
 3.05000    5.25     3.04   2.12187  2.5842   3.99854
 3.00000    5.26     3.03   2.11977  2.5842   3.99673
 2.95000    5.26     3.04   2.11765  2.5843   3.99500
 2.90000    5.27     3.03   2.11543  2.5842   3.99564
 2.85000    5.27     3.03   2.11387  2.5842   3.99398
 2.80000    5.28     3.04   2.11192  2.5843   3.99206
 2.75000    5.28     3.03   2.11021  2.5844   3.99038
 2.70000    5.29     3.03   2.10887  2.5842   3.98793
 2.65000    5.31     3.04   2.10732  2.5841   3.98897
 2.60000    5.32     3.02   2.10443  2.5842   3.98574
 2.55000    5.32     3.01   2.10298  2.5843   3.98901
 2.50000    5.33     3.01   2.10066  2.5842   3.98609
 2.45000    5.33     3.02   2.09897  2.5843   3.98821
 2.40000    5.34     3.01   2.09752  2.5845   3.98635
 2.35000    5.34     3.01   2.09606  2.5844   3.98292
 2.30000    5.35     3.01   2.09424  2.5846   3.98033
 2.25000    5.36     3.01   2.09160  2.5846   3.98119
 2.20000    5.36     3.01   2.09073  2.5845   3.97911
 2.15000    5.36     3.02   2.08900  2.5846   3.97782
 2.10000    5.37     3.00   2.08852  2.5846   3.98007
 2.05000    5.37     3.00   2.08734  2.5845   3.97844
 2.00000    5.37     3.03   2.08541  2.5846   3.97747
 1.95000    5.38     3.00   2.08409  2.5847   3.97964
 1.90000    5.38     3.00   2.08242  2.5847   3.97659
 1.85000    5.38     3.01   2.08141  2.5848   3.97660
 1.80000    5.38     3.00   2.07997  2.5849   3.97687
 1.75000    5.38     3.02   2.07888  2.5850   3.97450
 1.70000    5.39     3.01   2.07808  2.5851   3.97438
 1.65000    5.39     3.00   2.07743  2.5851   3.97391
 1.60000    5.39     3.01   2.07665  2.5851   3.97419
 1.55000    5.39     2.99   2.07610  2.5853   3.97479
 1.50000    5.39     3.00   2.07588  2.5852   3.97053
 1.45000    5.38     3.00   2.07587  2.5853   3.97104
 1.40000    5.38     3.00   2.07584  2.5853   3.97165
 1.35000    5.37     3.00   2.07529  2.5854   3.96943
 1.30000    5.36     3.01   2.07552  2.5853   3.97089
 1.25000    5.35     3.01   2.07620  2.5856   3.96953
 1.20000    5.35     3.00   2.07668  2.5856   3.96807
 1.15000    5.34     3.01   2.07675  2.5856   3.96863
 1.10000    5.33     3.00   2.07780  2.5853   3.96768
 1.05000    5.33     3.01   2.07580  2.5853   3.96788
 1.00000    5.32     3.02   2.07719  2.5852   3.96694
 0.95000    5.31     3.00   2.07745  2.5849   3.96542
 0.90000    5.31     3.00   2.07776  2.5848   3.96361
 0.85000    5.30     3.01   2.07725  2.5848   3.96602
 0.80000    5.30     2.99   2.07690  2.5846   3.96337
 0.75000    5.30     2.99   2.07647  2.5845   3.96436
 0.70000    5.30     3.01   2.07617  2.5842   3.96179
 0.65000    5.30     3.00   2.07501  2.5842   3.96253
 0.60000    5.29     2.98   2.07426  2.5841   3.96100
 0.55000    5.29     3.01   2.07489  2.5837   3.96008
 0.50000    5.28     2.99   2.07407  2.5834   3.95914
 0.45000    5.28     2.99   2.07267  2.5833   3.95966
 0.40000    5.27     3.00   2.07183  2.5832   3.95881
 0.35000    5.26     3.00   2.07111  2.5831   3.95876
 0.30000    5.25     2.99   2.07133  2.5830   3.95854
 0.25000    5.24     2.99   2.07093  2.5827   3.95922
 0.20000    5.23     2.99   2.07126  2.5824   3.95588
 0.15000    5.23     3.00   2.06976  2.5823   3.95921
 0.10000    5.23     3.00   2.06934  2.5822   3.95579
 0.05000    5.22     2.99   2.06832  2.5820   3.95759
-0.00000    5.21     3.00   2.06762  2.5819   3.95638
