 Field[T] Tsmpl[K] Tcntr[K] Signal Mirror[MM] RefSignal
 0.00000    4.81     2.99   2.26669  2.5908   1.00488
 0.05000    4.81     3.01   2.26808  2.5911   1.00704
 0.10000    4.80     3.00   2.26927  2.5913   1.00682
 0.15000    4.80     3.00   2.27093  2.5913   1.00740
 0.20000    4.80     3.00   2.27405  2.5918   1.00695
 0.25000    4.80     2.99   2.27618  2.5914   1.00866
 0.30000    4.80     3.01   2.27720  2.5920   1.01016
 0.35000    4.81     3.00   2.27985  2.5922   1.00867
 0.40000    4.81     3.00   2.28071  2.5924   1.00955
 0.45000    4.81     3.00   2.28115  2.5926   1.01011
 0.50000    4.82     3.00   2.28302  2.5928   1.01082
 0.55000    4.83     3.00   2.28429  2.5930   1.00718
 0.60000    4.83     3.02   2.28521  2.5933   1.01149
 0.65000    4.84     3.00   2.28660  2.5937   1.01105
 0.70000    4.84     3.00   2.28634  2.5938   1.01041
 0.75000    4.85     3.01   2.28768  2.5941   1.01160
 0.80000    4.85     3.00   2.28925  2.5945   1.01064
 0.85000    4.86     2.99   2.29006  2.5946   1.01219
 0.90000    4.86     2.99   2.29021  2.5946   1.01055
 0.95000    4.88     3.00   2.29069  2.5948   1.01282
 1.00000    4.88     3.00   2.29239  2.5948   1.01323
 1.05000    4.88     3.00   2.29187  2.5950   1.01114
 1.10000    4.89     2.99   2.29289  2.5953   1.01289
 1.15000    4.90     2.99   2.29334  2.5955   1.01199
 1.20000    4.91     3.00   2.29312  2.5958   1.01348
 1.25000    4.93     2.99   2.29352  2.5960   1.01377
 1.30000    4.93     3.00   2.29296  2.5961   1.01445
 1.35000    4.94     3.00   2.29359  2.5961   1.01480
 1.40000    4.94     2.99   2.29322  2.5963   1.01549
 1.45000    4.93     3.01   2.29297  2.5965   1.01328
 1.50000    4.92     3.00   2.29281  2.5965   1.01428
 1.55000    4.89     3.00   2.29178  2.5965   1.01366
 1.60000    4.86     2.99   2.29077  2.5967   1.01388
 1.65000    4.83     3.00   2.28920  2.5967   1.01418
 1.70000    4.80     2.99   2.28903  2.5967   1.01421
 1.75000    4.78     2.98   2.28815  2.5966   1.01413
 1.80000    4.77     2.99   2.28833  2.5968   1.01492
 1.85000    4.75     3.00   2.28842  2.5969   1.01483
 1.90000    4.74     3.01   2.28815  2.5968   1.01296
 1.95000    4.74     3.00   2.28853  2.5971   1.01358
 2.00000    4.73     3.00   2.28874  2.5969   1.01445
 2.05000    4.73     3.02   2.28869  2.5969   1.01510
 2.10000    4.73     2.99   2.28939  2.5968   1.01466
 2.15000    4.72     3.01   2.28988  2.5967   1.01461
 2.20000    4.72     3.00   2.29039  2.5966   1.01551
 2.25000    4.71     3.00   2.29230  2.5965   1.01543
 2.30000    4.71     3.00   2.29239  2.5967   1.01628
 2.35000    4.70     3.00   2.29281  2.5966   1.01370
 2.40000    4.70     3.02   2.29415  2.5965   1.01326
 2.45000    4.70     3.00   2.29585  2.5965   1.01426
 2.50000    4.70     3.00   2.29801  2.5965   1.01463
 2.55000    4.70     3.02   2.29857  2.5965   1.01609
 2.60000    4.70     3.00   2.29896  2.5966   1.01363
 2.65000    4.70     3.00   2.30009  2.5969   1.01347
 2.70000    4.69     3.01   2.30125  2.5967   1.01488
 2.75000    4.69     3.02   2.30352  2.5965   1.01497
 2.80000    4.69     3.00   2.30496  2.5966   1.01620
 2.85000    4.70     3.00   2.30662  2.5965   1.01433
 2.90000    4.70     3.01   2.31152  2.5967   1.01885
 2.95000    4.71     3.00   2.30922  2.5968   1.01753
 3.00000    4.71     2.99   2.31007  2.5967   1.01623
 3.05000    4.73     3.01   2.31115  2.5967   1.01534
 3.10000    4.74     3.00   2.31148  2.5966   1.01483
 3.15000    4.76     3.00   2.31419  2.5964   1.01651
 3.20000    4.78     3.01   2.31638  2.5964   1.01461
 3.25000    4.80     3.01   2.31650  2.5966   1.01545
 3.30000    4.82     3.01   2.31816  2.5966   1.01520
 3.35000    4.83     3.00   2.31786  2.5968   1.01444
 3.40000    4.85     3.01   2.32093  2.5967   1.01592
 3.45000    4.86     3.01   2.32242  2.5966   1.01592
 3.50000    4.86     3.00   2.32279  2.5965   1.01590
 3.55000    4.87     3.02   2.32444  2.5966   1.01666
 3.60000    4.87     3.01   2.32622  2.5966   1.01505
 3.65000    4.87     3.01   2.32805  2.5968   1.01489
 3.70000    4.87     3.01   2.32934  2.5969   1.01754
 3.75000    4.88     3.01   2.32965  2.5970   1.01729
 3.80000    4.89     3.03   2.33217  2.5970   1.01632
 3.85000    4.90     3.00   2.33360  2.5970   1.01701
 3.90000    4.91     3.02   2.33446  2.5970   1.01643
 3.95000    4.92     3.01   2.33653  2.5972   1.01526
 4.00000    4.93     3.02   2.33784  2.5971   1.01525
 4.00000    4.93     3.01   2.33706  2.5971   1.01604
 3.95000    4.94     3.02   2.33608  2.5973   1.01408
 3.90000    4.94     3.03   2.33441  2.5972   1.01574
 3.85000    4.96     3.02   2.33325  2.5972   1.01547
 3.80000    4.97     3.03   2.33162  2.5972   1.01223
 3.75000    4.97     3.04   2.32991  2.5971   1.01293
 3.70000    4.98     3.03   2.32904  2.5971   1.01413
 3.65000    4.99     3.03   2.32760  2.5973   1.01307
 3.60000    5.00     3.04   2.32680  2.5973   1.01321
 3.55000    5.00     3.04   2.32468  2.5971   1.01433
 3.50000    5.01     3.06   2.32310  2.5973   1.01328
 3.45000    5.02     3.04   2.32153  2.5977   1.01340
 3.40000    5.03     3.06   2.32079  2.5972   1.01337
 3.35000    5.04     3.05   2.31953  2.5973   1.01371
 3.30000    5.04     3.06   2.31925  2.5971   1.01352
 3.25000    5.05     3.04   2.31796  2.5972   1.01227
 3.20000    5.05     3.04   2.31587  2.5974   1.01294
 3.15000    5.05     3.03   2.31370  2.5973   1.01194
 3.10000    5.05     3.04   2.31311  2.5976   1.01187
 3.05000    5.06     3.04   2.31171  2.5975   1.01171
 3.00000    5.07     3.04   2.31066  2.5976   1.01208
 2.95000    5.07     3.04   2.30990  2.5975   1.01106
 2.90000    5.08     3.04   2.30844  2.5977   1.01081
 2.85000    5.08     3.03   2.30723  2.5976   1.00991
 2.80000    5.08     3.02   2.30601  2.5978   1.01021
 2.75000    5.09     3.03   2.30504  2.5977   1.01047
 2.70000    5.09     3.03   2.30446  2.5977   1.01003
 2.65000    5.09     3.03   2.30315  2.5978   1.00962
 2.60000    5.10     3.02   2.30234  2.5978   1.00907
 2.55000    5.10     3.03   2.30044  2.5978   1.00926
 2.50000    5.10     3.02   2.29947  2.5978   1.01051
 2.45000    5.10     3.02   2.29849  2.5979   1.00836
 2.40000    5.11     3.03   2.29819  2.5979   1.01016
 2.35000    5.11     3.02   2.29582  2.5979   1.01051
 2.30000    5.11     3.02   2.29545  2.5980   1.00842
 2.25000    5.11     3.03   2.29446  2.5979   1.00857
 2.20000    5.12     3.02   2.29338  2.5980   1.00960
 2.15000    5.13     3.01   2.29197  2.5981   1.00722
 2.10000    5.13     3.01   2.29162  2.5982   1.00857
 2.05000    5.13     3.01   2.29246  2.5983   1.00891
 2.00000    5.14     3.01   2.29176  2.5983   1.00906
 1.95000    5.14     3.02   2.29173  2.5985   1.00938
 1.90000    5.16     3.01   2.29135  2.5985   1.00814
 1.85000    5.16     3.01   2.29245  2.5986   1.00777
 1.80000    5.17     3.02   2.29223  2.5987   1.00922
 1.75000    5.19     3.01   2.29239  2.5985   1.00722
 1.70000    5.19     3.00   2.29328  2.5984   1.00865
 1.65000    5.20     3.01   2.29389  2.5986   1.00738
 1.60000    5.21     3.00   2.29385  2.5985   1.00816
 1.55000    5.22     3.01   2.29560  2.5985   1.00723
 1.50000    5.23     3.02   2.29640  2.5983   1.00788
 1.45000    5.24     3.00   2.29688  2.5986   1.00648
 1.40000    5.25     3.01   2.29828  2.5985   1.00668
 1.35000    5.26     3.00   2.29811  2.5983   1.00616
 1.30000    5.26     3.01   2.29919  2.5982   1.00559
 1.25000    5.26     3.00   2.29872  2.5982   1.00631
 1.20000    5.27     3.00   2.29898  2.5980   1.00486
 1.15000    5.27     3.01   2.29866  2.5979   1.00528
 1.10000    5.27     3.00   2.29865  2.5977   1.00494
 1.05000    5.28     3.00   2.29804  2.5977   1.00418
 1.00000    5.28     3.01   2.29795  2.5977   1.00372
 0.95000    5.28     3.01   2.29820  2.5974   1.00362
 0.90000    5.28     3.00   2.29783  2.5973   1.00576
 0.85000    5.28     3.00   2.29738  2.5970   1.00510
 0.80000    5.28     3.00   2.29702  2.5969   1.00498
 0.75000    5.28     3.02   2.29768  2.5968   1.00155
 0.70000    5.27     2.99   2.29661  2.5964   1.00396
 0.65000    5.27     3.00   2.29597  2.5965   1.00382
 0.60000    5.27     2.99   2.29523  2.5963   1.00552
 0.55000    5.26     3.01   2.29464  2.5959   1.00264
 0.50000    5.26     2.99   2.29422  2.5960   1.00490
 0.45000    5.26     3.00   2.29402  2.5957   1.00496
 0.40000    5.26     2.99   2.29319  2.5956   1.00331
 0.35000    5.25     2.99   2.29245  2.5954   1.00309
 0.30000    5.24     2.99   2.29099  2.5952   1.00331
 0.25000    5.23     3.01   2.29052  2.5948   1.00155
 0.20000    5.22     2.99   2.28906  2.5946   1.00242
 0.15000    5.21     2.99   2.28859  2.5945   1.00244
 0.10000    5.20     3.00   2.28805  2.5943   1.00075
 0.05000    5.18     2.99   2.28671  2.5940   1.00055
-0.00000    5.17     3.00   2.28613  2.5940   1.00258
