 Field[T] Tsmpl[K] Tcntr[K] Signal Mirror[MM] RefSignal
 0.00000    1.82     1.83   1.00267  0.6458   0.41158
 0.05000    1.82     1.83   1.00277  0.6458   0.41143
 0.10000    1.82     1.83   1.00219  0.6458   0.41147
 0.15000    1.82     1.83   1.00205  0.6457   0.41145
 0.20000    1.82     1.83   1.00222  0.6457   0.41329
 0.25000    1.82     1.83   1.00211  0.6459   0.41305
 0.30000    1.82     1.83   1.00224  0.6458   0.41238
 0.35000    1.82     1.83   1.00199  0.6457   0.41413
 0.40000    1.82     1.83   1.00213  0.6458   0.41235
 0.45000    1.82     1.83   1.00250  0.6457   0.41505
 0.50000    1.82     1.83   1.00287  0.6460   0.41322
 0.55000    1.82     1.83   1.00309  0.6457   0.41372
 0.60000    1.82     1.83   1.00294  0.6458   0.41186
 0.65000    1.82     1.83   1.00352  0.6459   0.41255
 0.70000    1.82     1.83   1.00361  0.6457   0.41285
 0.75000    1.82     1.83   1.00313  0.6457   0.41190
 0.80000    1.82     1.83   1.00347  0.6457   0.41072
 0.85000    1.82     1.83   1.00402  0.6456   0.41303
 0.90000    1.82     1.83   1.00411  0.6458   0.41305
 0.95000    1.82     1.83   1.00433  0.6458   0.41240
 1.00000    1.82     1.83   1.00483  0.6459   0.41219
 1.05000    1.82     1.83   1.00435  0.6469   0.41285
 1.10000    1.82     1.83   1.00473  0.6467   0.41263
 1.15000    1.82     1.83   1.00572  0.6462   0.41314
 1.20000    1.82     1.83   1.00630  0.6464   0.41419
 1.25000    1.82     1.83   1.00591  0.6465   0.41399
 1.30000    1.82     1.83   1.00603  0.6463   0.41357
 1.35000    1.82     1.83   1.00528  0.6467   0.41260
 1.40000    1.82     1.83   1.00421  0.6470   0.41402
 1.45000    1.82     1.83   1.00369  0.6470   0.41311
 1.50000    1.82     1.83   1.00270  0.6469   0.41230
 1.55000    1.82     1.83   1.00176  0.6469   0.41302
 1.60000    1.82     1.83   1.00000  0.6471   0.41360
 1.65000    1.82     1.83   0.99744  0.6472   0.41234
 1.70000    1.82     1.84   0.99450  0.6472   0.41292
 1.75000    1.82     1.84   0.99195  0.6470   0.41436
 1.80000    1.82     1.84   0.98978  0.6470   0.41499
 1.85000    1.82     1.84   0.98875  0.6469   0.41295
 1.90000    1.82     1.84   0.98794  0.6462   0.41741
 1.95000    1.82     1.84   0.98760  0.6465   0.41449
 2.00000    1.82     1.84   0.98768  0.6463   0.41437
 2.05000    1.82     1.84   0.98709  0.6453   0.41341
 2.10000    1.82     1.84   0.98656  0.6464   0.41362
 2.15000    1.82     1.84   0.98772  0.6456   0.41382
 2.20000    1.82     1.84   0.98759  0.6461   0.41223
 2.25000    1.82     1.84   0.98717  0.6460   0.41354
 2.30000    1.82     1.84   0.98721  0.6455   0.41195
 2.35000    1.82     1.84   0.98761  0.6460   0.41283
 2.40000    1.82     1.84   0.98842  0.6459   0.41329
 2.45000    1.82     1.84   0.98830  0.6453   0.41456
 2.50000    1.82     1.84   0.98776  0.6458   0.41438
 2.55000    1.82     1.84   0.98801  0.6445   0.41385
 2.60000    1.82     1.84   0.98769  0.6442   0.41357
 2.65000    1.82     1.84   0.98812  0.6443   0.41371
 2.70000    1.82     1.84   0.98831  0.6445   0.41966
 2.75000    1.82     1.85   0.98852  0.6442   0.41400
 2.80000    1.82     1.85   0.98872  0.6440   0.41340
 2.85000    1.82     1.85   0.98892  0.6440   0.41252
 2.90000    1.82     1.85   0.98943  0.6438   0.41407
 2.95000    1.82     1.85   0.98961  0.6439   0.41395
 3.00000    1.82     1.85   0.98959  0.6437   0.41427
 3.05000    1.82     1.85   0.98940  0.6439   0.41148
 3.10000    1.82     1.85   0.98989  0.6437   0.41395
 3.15000    1.82     1.85   0.98980  0.6437   0.41258
 3.20000    1.82     1.85   0.98806  0.6440   0.41446
 3.25000    1.82     1.85   0.98945  0.6454   0.41496
 3.30000    1.82     1.85   0.99044  0.6437   0.41331
 3.35000    1.82     1.85   0.99015  0.6443   0.41137
 3.40000    1.82     1.85   0.99056  0.6442   0.41198
 3.45000    1.82     1.85   0.99090  0.6436   0.41432
 3.50000    1.82     1.85   0.99108  0.6436   0.41329
 3.55000    1.82     1.85   0.99184  0.6434   0.41361
 3.60000    1.82     1.85   0.99213  0.6434   0.41349
 3.65000    1.82     1.85   0.99153  0.6431   0.41347
 3.70000    1.82     1.85   0.99265  0.6432   0.41167
 3.75000    1.82     1.85   0.99320  0.6429   0.41395
 3.80000    1.82     1.86   0.99337  0.6428   0.41345
 3.85000    1.83     1.86   0.99378  0.6425   0.41674
 3.90000    1.83     1.86   0.99408  0.6428   0.41229
 3.95000    1.83     1.86   0.99447  0.6429   0.41362
 4.00000    1.83     1.86   0.99459  0.6429   0.41359
 4.00000    1.83     1.86   0.99480  0.6427   0.41306
 3.95000    1.83     1.86   0.99444  0.6428   0.41464
 3.90000    1.83     1.86   0.99161  0.6434   0.41358
 3.85000    1.83     1.86   0.99348  0.6436   0.41463
 3.80000    1.83     1.86   0.99327  0.6426   0.41320
 3.75000    1.83     1.86   0.99324  0.6427   0.41387
 3.70000    1.83     1.86   0.99344  0.6425   0.41446
 3.65000    1.83     1.86   0.99244  0.6428   0.41407
 3.60000    1.83     1.86   0.99298  0.6428   0.41282
 3.55000    1.83     1.86   0.99047  0.6443   0.41407
 3.50000    1.83     1.85   0.99126  0.6434   0.41155
 3.45000    1.82     1.85   0.99170  0.6425   0.41115
 3.40000    1.82     1.85   0.99038  0.6445   0.41291
 3.35000    1.82     1.85   0.99095  0.6436   0.41150
 3.30000    1.82     1.85   0.99049  0.6430   0.41364
 3.25000    1.82     1.85   0.98979  0.6446   0.41241
 3.20000    1.82     1.85   0.99033  0.6432   0.41161
 3.15000    1.82     1.85   0.98965  0.6434   0.41330
 3.10000    1.82     1.85   0.98997  0.6431   0.41303
 3.05000    1.82     1.85   0.98963  0.6429   0.41420
 3.00000    1.82     1.85   0.98974  0.6427   0.41515
 2.95000    1.82     1.85   0.98652  0.6433   0.41278
 2.90000    1.82     1.85   0.98866  0.6437   0.41234
 2.85000    1.82     1.85   0.98854  0.6435   0.41204
 2.80000    1.82     1.85   0.98896  0.6430   0.41124
 2.75000    1.82     1.85   0.98873  0.6435   0.41271
 2.70000    1.82     1.85   0.98858  0.6435   0.41233
 2.65000    1.82     1.84   0.98822  0.6436   0.41265
 2.60000    1.82     1.84   0.98867  0.6434   0.41407
 2.55000    1.82     1.84   0.98889  0.6437   0.41365
 2.50000    1.82     1.84   0.98852  0.6436   0.41409
 2.45000    1.82     1.84   0.98884  0.6439   0.41344
 2.40000    1.82     1.84   0.98856  0.6459   0.41399
 2.35000    1.82     1.84   0.98862  0.6451   0.41172
 2.30000    1.82     1.84   0.98910  0.6444   0.41343
 2.25000    1.82     1.84   0.98878  0.6442   0.41197
 2.20000    1.82     1.84   0.98838  0.6440   0.41428
 2.15000    1.82     1.84   0.98743  0.6451   0.41304
 2.10000    1.82     1.84   0.98796  0.6445   0.41223
 2.05000    1.82     1.84   0.98766  0.6446   0.41313
 2.00000    1.82     1.84   0.98800  0.6456   0.41121
 1.95000    1.82     1.84   0.98836  0.6452   0.41440
 1.90000    1.82     1.84   0.98931  0.6450   0.41496
 1.85000    1.82     1.84   0.99031  0.6450   0.41286
 1.80000    1.82     1.84   0.99125  0.6463   0.41196
 1.75000    1.82     1.84   0.99377  0.6459   0.41333
 1.70000    1.82     1.84   0.99401  0.6470   0.41359
 1.65000    1.82     1.84   0.99877  0.6464   0.41271
 1.60000    1.82     1.83   1.00082  0.6458   0.41405
 1.55000    1.81     1.83   1.00234  0.6465   0.41269
 1.50000    1.81     1.83   1.00397  0.6467   0.41109
 1.45000    1.81     1.83   1.00545  0.6454   0.41368
 1.40000    1.81     1.83   1.00639  0.6456   0.41380
 1.35000    1.81     1.83   1.00766  0.6451   0.41275
 1.30000    1.81     1.83   1.00750  0.6446   0.41372
 1.25000    1.81     1.83   1.00632  0.6445   0.41231
 1.20000    1.81     1.83   1.00663  0.6458   0.41275
 1.15000    1.81     1.83   1.00716  0.6458   0.41340
 1.10000    1.81     1.83   1.00702  0.6448   0.41492
 1.05000    1.81     1.83   1.00582  0.6454   0.41381
 1.00000    1.81     1.83   1.00649  0.6458   0.41245
 0.95000    1.81     1.83   1.00632  0.6451   0.41308
 0.90000    1.81     1.83   1.00638  0.6448   0.41300
 0.85000    1.81     1.83   1.00610  0.6448   0.41455
 0.80000    1.81     1.83   1.00524  0.6455   0.41394
 0.75000    1.81     1.83   1.00530  0.6454   0.41052
 0.70000    1.81     1.83   1.00561  0.6449   0.41274
 0.65000    1.81     1.83   1.00535  0.6445   0.41271
 0.60000    1.81     1.83   1.00512  0.6457   0.41102
 0.55000    1.81     1.83   1.00601  0.6453   0.41316
 0.50000    1.81     1.83   1.00596  0.6447   0.41353
 0.45000    1.81     1.83   1.00488  0.6453   0.41313
 0.40000    1.81     1.83   1.00561  0.6450   0.41308
 0.35000    1.81     1.83   1.00547  0.6435   0.41307
 0.30000    1.81     1.83   1.00590  0.6439   0.41386
 0.25000    1.81     1.83   1.00611  0.6442   0.41481
 0.20000    1.81     1.83   1.00574  0.6445   0.41390
 0.15000    1.81     1.83   1.00560  0.6447   0.41078
 0.10000    1.81     1.83   1.00600  0.6456   0.41150
 0.05000    1.81     1.83   1.00679  0.6452   0.41242
-0.00000    1.81     1.83   1.00715  0.6449   0.41214
