 Field[T] Tsmpl[K] Tcntr[K] Signal Mirror[MM] RefSignal
 0.00000    1.77     1.79   1.03934  0.9704   4.52170
 0.05000    1.77     1.79   1.04038  0.9701   4.52770
 0.10000    1.77     1.79   1.03841  0.9704   4.52572
 0.15000    1.77     1.79   1.03892  0.9706   4.52358
 0.20000    1.77     1.79   1.04026  0.9702   4.52235
 0.25000    1.77     1.79   1.04032  0.9700   4.52602
 0.30000    1.77     1.79   1.03975  0.9700   4.52743
 0.35000    1.77     1.79   1.03974  0.9698   4.52786
 0.40000    1.77     1.79   1.03950  0.9700   4.52778
 0.45000    1.77     1.79   1.03898  0.9701   4.52503
 0.50000    1.77     1.79   1.03824  0.9698   4.52833
 0.55000    1.77     1.79   1.03836  0.9698   4.52336
 0.60000    1.77     1.79   1.03748  0.9699   4.52844
 0.65000    1.77     1.79   1.03750  0.9696   4.53038
 0.70000    1.77     1.79   1.03586  0.9699   4.52890
 0.75000    1.77     1.79   1.03581  0.9696   4.52665
 0.80000    1.77     1.79   1.03405  0.9701   4.52665
 0.85000    1.77     1.79   1.03266  0.9698   4.52899
 0.90000    1.77     1.79   1.03012  0.9698   4.53260
 0.95000    1.77     1.79   1.02873  0.9689   4.52782
 1.00000    1.77     1.79   1.02685  0.9685   4.52847
 1.05000    1.77     1.79   1.02423  0.9685   4.53097
 1.10000    1.77     1.79   1.02327  0.9676   4.53378
 1.15000    1.77     1.79   1.02360  0.9672   4.52966
 1.20000    1.77     1.79   1.02423  0.9660   4.53043
 1.25000    1.78     1.79   1.02498  0.9663   4.53403
 1.30000    1.78     1.79   1.02732  0.9656   4.53230
 1.35000    1.78     1.79   1.02674  0.9663   4.53340
 1.40000    1.78     1.79   1.03083  0.9655   4.53224
 1.45000    1.78     1.80   1.03156  0.9655   4.53215
 1.50000    1.78     1.80   1.03443  0.9652   4.53462
 1.55000    1.78     1.80   1.03459  0.9655   4.52846
 1.60000    1.78     1.80   1.03707  0.9653   4.53105
 1.65000    1.78     1.80   1.03809  0.9654   4.53309
 1.70000    1.78     1.80   1.03836  0.9657   4.53780
 1.75000    1.78     1.80   1.04003  0.9654   4.53712
 1.80000    1.78     1.80   1.04048  0.9656   4.53497
 1.85000    1.78     1.80   1.04118  0.9657   4.53893
 1.90000    1.78     1.80   1.04195  0.9656   4.53720
 1.95000    1.78     1.80   1.04177  0.9659   4.53863
 2.00000    1.78     1.80   1.04277  0.9659   4.53594
 2.05000    1.78     1.80   1.04281  0.9660   4.53406
 2.10000    1.78     1.80   1.04186  0.9657   4.53492
 2.15000    1.78     1.80   1.04111  0.9664   4.53485
 2.20000    1.78     1.80   1.04299  0.9662   4.53657
 2.25000    1.78     1.80   1.04290  0.9665   4.53133
 2.30000    1.78     1.80   1.04047  0.9671   4.53609
 2.35000    1.78     1.80   1.04267  0.9670   4.53105
 2.40000    1.78     1.80   1.04286  0.9666   4.53539
 2.45000    1.78     1.80   1.04175  0.9669   4.53276
 2.50000    1.78     1.80   1.04134  0.9670   4.53583
 2.55000    1.78     1.80   1.04383  0.9667   4.53834
 2.60000    1.78     1.81   1.04351  0.9667   4.54006
 2.65000    1.78     1.81   1.04362  0.9672   4.53959
 2.70000    1.78     1.81   1.04357  0.9669   4.54121
 2.75000    1.78     1.81   1.04418  0.9671   4.53865
 2.80000    1.78     1.81   1.04438  0.9668   4.53589
 2.85000    1.78     1.81   1.04398  0.9671   4.53925
 2.90000    1.78     1.81   1.04321  0.9668   4.53880
 2.95000    1.78     1.81   1.04276  0.9674   4.53636
 3.00000    1.78     1.81   1.04184  0.9672   4.53926
 3.05000    1.78     1.81   1.04270  0.9671   4.53919
 3.10000    1.78     1.81   1.04320  0.9678   4.54403
 3.15000    1.78     1.81   1.04305  0.9674   4.54655
 3.20000    1.78     1.81   1.04259  0.9676   4.54026
 3.25000    1.78     1.81   1.04277  0.9679   4.54261
 3.30000    1.78     1.81   1.04268  0.9680   4.54587
 3.35000    1.78     1.81   1.04212  0.9678   4.53877
 3.40000    1.78     1.81   1.04284  0.9685   4.54103
 3.45000    1.78     1.81   1.04221  0.9687   4.54180
 3.50000    1.78     1.81   1.04196  0.9683   4.54476
 3.55000    1.78     1.81   1.04210  0.9687   4.54074
 3.60000    1.78     1.81   1.04198  0.9689   4.54063
 3.65000    1.78     1.81   1.04170  0.9686   4.53898
 3.70000    1.78     1.81   1.04087  0.9687   4.54242
 3.75000    1.78     1.81   1.04102  0.9694   4.54004
 3.80000    1.78     1.81   1.04086  0.9692   4.54189
 3.85000    1.78     1.81   1.04109  0.9692   4.54395
 3.90000    1.78     1.81   1.04034  0.9694   4.54038
 3.95000    1.78     1.81   1.03966  0.9697   4.53976
 4.00000    1.78     1.81   1.04046  0.9696   4.54403
 4.00000    1.78     1.81   1.03989  0.9695   4.54262
 3.95000    1.78     1.81   1.04025  0.9693   4.54005
 3.90000    1.78     1.81   1.04024  0.9695   4.54151
 3.85000    1.78     1.81   1.04022  0.9696   4.54216
 3.80000    1.78     1.81   1.04053  0.9697   4.54326
 3.75000    1.78     1.81   1.03987  0.9697   4.54234
 3.70000    1.78     1.81   1.04088  0.9692   4.54262
 3.65000    1.78     1.81   1.04155  0.9693   4.54395
 3.60000    1.78     1.81   1.04039  0.9695   4.54466
 3.55000    1.78     1.81   1.04000  0.9695   4.54213
 3.50000    1.78     1.81   1.04011  0.9698   4.54227
 3.45000    1.78     1.81   1.04141  0.9695   4.54484
 3.40000    1.78     1.81   1.04066  0.9699   4.54082
 3.35000    1.78     1.80   1.04076  0.9695   4.54001
 3.30000    1.77     1.80   1.04066  0.9697   4.54360
 3.25000    1.77     1.80   1.04131  0.9697   4.54319
 3.20000    1.77     1.80   1.04012  0.9699   4.54295
 3.15000    1.77     1.80   1.04061  0.9699   4.53990
 3.10000    1.77     1.80   1.04037  0.9699   4.54229
 3.05000    1.77     1.80   1.04127  0.9702   4.54344
 3.00000    1.77     1.80   1.04052  0.9704   4.54555
 2.95000    1.77     1.80   1.04005  0.9704   4.54597
 2.90000    1.77     1.80   1.04148  0.9703   4.54689
 2.85000    1.77     1.80   1.04074  0.9701   4.54524
 2.80000    1.77     1.80   1.04049  0.9704   4.54666
 2.75000    1.77     1.80   1.04002  0.9705   4.54766
 2.70000    1.77     1.79   1.04023  0.9706   4.54533
 2.65000    1.77     1.79   1.04132  0.9704   4.54401
 2.60000    1.77     1.79   1.03975  0.9708   4.55165
 2.55000    1.77     1.79   1.04111  0.9703   4.55013
 2.50000    1.77     1.79   1.04079  0.9705   4.54792
 2.45000    1.77     1.79   1.04119  0.9716   4.54801
 2.40000    1.77     1.79   1.03992  0.9703   4.55121
 2.35000    1.77     1.79   1.04049  0.9701   4.54760
 2.30000    1.76     1.79   1.03937  0.9703   4.54884
 2.25000    1.76     1.79   1.04106  0.9696   4.54887
 2.20000    1.76     1.79   1.04080  0.9698   4.54877
 2.15000    1.76     1.79   1.03969  0.9695   4.55086
 2.10000    1.76     1.78   1.04105  0.9696   4.55074
 2.05000    1.76     1.78   1.03733  0.9700   4.55302
 2.00000    1.76     1.78   1.03648  0.9710   4.54928
 1.95000    1.76     1.78   1.03914  0.9699   4.54760
 1.90000    1.76     1.78   1.03949  0.9696   4.54698
 1.85000    1.76     1.78   1.03826  0.9697   4.55209
 1.80000    1.76     1.78   1.03785  0.9699   4.55350
 1.75000    1.76     1.78   1.03829  0.9695   4.55347
 1.70000    1.76     1.78   1.03821  0.9692   4.55412
 1.65000    1.76     1.78   1.03571  0.9692   4.55063
 1.60000    1.76     1.78   1.03356  0.9702   4.55227
 1.55000    1.76     1.78   1.03460  0.9693   4.55167
 1.50000    1.76     1.78   1.03218  0.9694   4.55178
 1.45000    1.76     1.78   1.03014  0.9691   4.54945
 1.40000    1.76     1.78   1.02838  0.9696   4.54984
 1.35000    1.76     1.78   1.02851  0.9694   4.55152
 1.30000    1.76     1.78   1.02630  0.9696   4.55173
 1.25000    1.76     1.78   1.02391  0.9706   4.55180
 1.20000    1.76     1.78   1.02428  0.9702   4.55198
 1.15000    1.76     1.78   1.02225  0.9709   4.55195
 1.10000    1.76     1.78   1.02290  0.9714   4.55262
 1.05000    1.76     1.78   1.02305  0.9718   4.55463
 1.00000    1.76     1.78   1.02517  0.9721   4.55306
 0.95000    1.76     1.78   1.02751  0.9730   4.55579
 0.90000    1.76     1.77   1.02951  0.9728   4.55698
 0.85000    1.76     1.77   1.03149  0.9730   4.55429
 0.80000    1.76     1.77   1.03445  0.9732   4.55298
 0.75000    1.76     1.77   1.03543  0.9728   4.55121
 0.70000    1.76     1.77   1.03625  0.9727   4.55691
 0.65000    1.76     1.77   1.03714  0.9732   4.55509
 0.60000    1.76     1.77   1.03840  0.9729   4.55617
 0.55000    1.76     1.77   1.03784  0.9726   4.55251
 0.50000    1.76     1.77   1.03867  0.9728   4.55312
 0.45000    1.76     1.77   1.03956  0.9724   4.55437
 0.40000    1.76     1.77   1.03932  0.9727   4.55482
 0.35000    1.76     1.77   1.04178  0.9725   4.55581
 0.30000    1.76     1.77   1.04108  0.9724   4.55559
 0.25000    1.76     1.77   1.03967  0.9730   4.55709
 0.20000    1.76     1.77   1.04281  0.9721   4.55738
 0.15000    1.76     1.77   1.04284  0.9722   4.56006
 0.10000    1.76     1.77   1.04345  0.9721   4.55947
 0.05000    1.76     1.77   1.04333  0.9719   4.55822
-0.00000    1.76     1.77   1.04375  0.9718   4.56137
