 Field[T] Tsmpl[K] Tcntr[K] Signal Mirror[MM] RefSignal
 0.00000    1.77     1.79   0.67840  0.9287   3.05836
 0.05000    1.77     1.79   0.67571  0.9298   3.05790
 0.10000    1.77     1.79   0.67727  0.9293   3.05936
 0.15000    1.77     1.79   0.67695  0.9295   3.05878
 0.20000    1.77     1.79   0.67549  0.9299   3.05641
 0.25000    1.77     1.79   0.67536  0.9293   3.05709
 0.30000    1.77     1.79   0.67437  0.9298   3.05630
 0.35000    1.77     1.79   0.67499  0.9297   3.05756
 0.40000    1.77     1.79   0.67257  0.9300   3.05561
 0.45000    1.77     1.79   0.67126  0.9301   3.05319
 0.50000    1.77     1.79   0.66980  0.9306   3.05472
 0.55000    1.77     1.79   0.66706  0.9309   3.05623
 0.60000    1.77     1.79   0.66328  0.9317   3.05720
 0.65000    1.77     1.79   0.65691  0.9319   3.05310
 0.70000    1.77     1.79   0.65293  0.9301   3.05680
 0.75000    1.77     1.79   0.64792  0.9284   3.05418
 0.80000    1.77     1.79   0.64672  0.9265   3.05565
 0.85000    1.77     1.79   0.64469  0.9243   3.05551
 0.90000    1.77     1.79   0.64536  0.9220   3.05234
 0.95000    1.77     1.79   0.64485  0.9205   3.05508
 1.00000    1.77     1.79   0.64771  0.9182   3.05395
 1.05000    1.77     1.79   0.64844  0.9173   3.05274
 1.10000    1.77     1.79   0.65130  0.9157   3.05186
 1.15000    1.77     1.79   0.65334  0.9152   3.05427
 1.20000    1.77     1.79   0.65536  0.9150   3.05167
 1.25000    1.77     1.79   0.65727  0.9140   3.05176
 1.30000    1.77     1.79   0.65905  0.9139   3.05055
 1.35000    1.77     1.79   0.66187  0.9129   3.05155
 1.40000    1.77     1.79   0.66159  0.9133   3.05357
 1.45000    1.77     1.79   0.66337  0.9134   3.05283
 1.50000    1.77     1.79   0.66358  0.9134   3.05232
 1.55000    1.77     1.79   0.66471  0.9135   3.05129
 1.60000    1.77     1.79   0.66637  0.9131   3.05356
 1.65000    1.78     1.79   0.66697  0.9127   3.05255
 1.70000    1.78     1.79   0.66678  0.9133   3.05285
 1.75000    1.78     1.80   0.66836  0.9135   3.04878
 1.80000    1.78     1.80   0.66792  0.9134   3.05136
 1.85000    1.78     1.80   0.66844  0.9133   3.05422
 1.90000    1.78     1.80   0.66943  0.9132   3.05217
 1.95000    1.78     1.80   0.67033  0.9130   3.05345
 2.00000    1.78     1.80   0.67074  0.9135   3.05239
 2.05000    1.78     1.80   0.67139  0.9135   3.05337
 2.10000    1.78     1.80   0.67170  0.9133   3.05562
 2.15000    1.78     1.80   0.67185  0.9131   3.05366
 2.20000    1.78     1.80   0.67101  0.9135   3.05126
 2.25000    1.78     1.80   0.67150  0.9133   3.05342
 2.30000    1.78     1.80   0.67228  0.9134   3.05102
 2.35000    1.78     1.80   0.67152  0.9134   3.05256
 2.40000    1.78     1.80   0.67234  0.9134   3.05087
 2.45000    1.78     1.80   0.67248  0.9134   3.05173
 2.50000    1.78     1.80   0.67312  0.9137   3.05088
 2.55000    1.78     1.80   0.67230  0.9140   3.05354
 2.60000    1.78     1.80   0.67355  0.9138   3.04993
 2.65000    1.78     1.80   0.67297  0.9138   3.04852
 2.70000    1.78     1.80   0.67298  0.9138   3.04777
 2.75000    1.78     1.80   0.67271  0.9142   3.05027
 2.80000    1.78     1.80   0.67293  0.9137   3.04890
 2.85000    1.78     1.81   0.67304  0.9137   3.04759
 2.90000    1.78     1.81   0.67367  0.9139   3.04952
 2.95000    1.78     1.81   0.67309  0.9140   3.04915
 3.00000    1.78     1.81   0.67356  0.9142   3.04960
 3.05000    1.78     1.81   0.67329  0.9142   3.05028
 3.10000    1.78     1.81   0.67411  0.9139   3.04803
 3.15000    1.78     1.81   0.67220  0.9146   3.04810
 3.20000    1.78     1.81   0.67383  0.9144   3.04746
 3.25000    1.78     1.81   0.67400  0.9143   3.04860
 3.30000    1.78     1.81   0.67426  0.9141   3.04733
 3.35000    1.78     1.81   0.67383  0.9144   3.04909
 3.40000    1.78     1.81   0.67333  0.9143   3.04814
 3.45000    1.78     1.81   0.67365  0.9143   3.04907
 3.50000    1.78     1.81   0.67367  0.9148   3.04986
 3.55000    1.78     1.81   0.67447  0.9144   3.04797
 3.60000    1.78     1.81   0.67235  0.9150   3.04551
 3.65000    1.78     1.81   0.67269  0.9150   3.04938
 3.70000    1.78     1.81   0.67413  0.9149   3.04860
 3.75000    1.78     1.81   0.67331  0.9151   3.04749
 3.80000    1.78     1.81   0.67423  0.9149   3.05036
 3.85000    1.78     1.81   0.67316  0.9150   3.04882
 3.90000    1.78     1.81   0.67284  0.9158   3.04938
 3.95000    1.78     1.81   0.67339  0.9147   3.04884
 4.00000    1.78     1.81   0.67313  0.9156   3.04805
 4.00000    1.78     1.81   0.67409  0.9151   3.04889
 3.95000    1.78     1.82   0.67387  0.9153   3.04798
 3.90000    1.78     1.82   0.67117  0.9168   3.04863
 3.85000    1.78     1.82   0.67295  0.9158   3.04762
 3.80000    1.78     1.81   0.67404  0.9154   3.04623
 3.75000    1.78     1.81   0.67358  0.9155   3.04859
 3.70000    1.78     1.81   0.67375  0.9151   3.05022
 3.65000    1.78     1.81   0.67427  0.9149   3.04830
 3.60000    1.78     1.81   0.67205  0.9157   3.04882
 3.55000    1.78     1.81   0.67360  0.9157   3.04740
 3.50000    1.78     1.81   0.67438  0.9152   3.04776
 3.45000    1.78     1.81   0.67372  0.9154   3.04746
 3.40000    1.78     1.81   0.67393  0.9154   3.04766
 3.35000    1.78     1.81   0.67413  0.9154   3.04491
 3.30000    1.78     1.80   0.67370  0.9155   3.04752
 3.25000    1.78     1.80   0.67358  0.9156   3.04745
 3.20000    1.78     1.80   0.67345  0.9154   3.04565
 3.15000    1.78     1.80   0.67322  0.9158   3.04767
 3.10000    1.77     1.80   0.67441  0.9154   3.04647
 3.05000    1.77     1.80   0.67410  0.9152   3.04633
 3.00000    1.77     1.80   0.67340  0.9156   3.04530
 2.95000    1.77     1.80   0.67341  0.9157   3.04444
 2.90000    1.77     1.80   0.67260  0.9155   3.04609
 2.85000    1.77     1.80   0.67291  0.9151   3.04437
 2.80000    1.77     1.80   0.67414  0.9150   3.04729
 2.75000    1.77     1.80   0.67355  0.9151   3.04814
 2.70000    1.77     1.79   0.67256  0.9154   3.04814
 2.65000    1.77     1.79   0.67364  0.9152   3.04945
 2.60000    1.77     1.79   0.67265  0.9155   3.04594
 2.55000    1.77     1.79   0.67141  0.9155   3.04714
 2.50000    1.77     1.79   0.67186  0.9162   3.04670
 2.45000    1.77     1.79   0.67280  0.9152   3.04693
 2.40000    1.77     1.79   0.67302  0.9149   3.04820
 2.35000    1.77     1.79   0.67212  0.9157   3.04853
 2.30000    1.77     1.79   0.67233  0.9153   3.04850
 2.25000    1.77     1.79   0.67212  0.9146   3.04870
 2.20000    1.76     1.79   0.67168  0.9150   3.05007
 2.15000    1.76     1.79   0.67153  0.9152   3.04712
 2.10000    1.76     1.79   0.67041  0.9152   3.04610
 2.05000    1.76     1.79   0.67032  0.9147   3.04798
 2.00000    1.76     1.78   0.67031  0.9159   3.04617
 1.95000    1.76     1.78   0.66987  0.9159   3.04443
 1.90000    1.76     1.78   0.66952  0.9157   3.04494
 1.85000    1.76     1.78   0.66914  0.9157   3.04589
 1.80000    1.76     1.78   0.66883  0.9153   3.04612
 1.75000    1.76     1.78   0.66844  0.9155   3.04539
 1.70000    1.76     1.78   0.66695  0.9156   3.04607
 1.65000    1.76     1.78   0.66648  0.9160   3.04659
 1.60000    1.76     1.78   0.66638  0.9158   3.04786
 1.55000    1.76     1.78   0.66572  0.9158   3.04361
 1.50000    1.76     1.78   0.66458  0.9161   3.04542
 1.45000    1.76     1.78   0.66413  0.9159   3.04778
 1.40000    1.76     1.78   0.66251  0.9160   3.04800
 1.35000    1.76     1.78   0.66126  0.9162   3.04462
 1.30000    1.76     1.78   0.66044  0.9162   3.04609
 1.25000    1.76     1.78   0.65904  0.9168   3.04637
 1.20000    1.76     1.78   0.65626  0.9166   3.04368
 1.15000    1.76     1.78   0.65293  0.9177   3.04496
 1.10000    1.76     1.78   0.65055  0.9191   3.04380
 1.05000    1.76     1.78   0.64711  0.9207   3.04575
 1.00000    1.76     1.78   0.64652  0.9215   3.04601
 0.95000    1.76     1.78   0.64554  0.9229   3.04647
 0.90000    1.76     1.77   0.64543  0.9241   3.04319
 0.85000    1.76     1.77   0.64451  0.9261   3.04823
 0.80000    1.76     1.77   0.64450  0.9286   3.04605
 0.75000    1.76     1.77   0.64674  0.9306   3.04476
 0.70000    1.76     1.77   0.65138  0.9332   3.04492
 0.65000    1.76     1.77   0.65644  0.9341   3.04446
 0.60000    1.76     1.77   0.66101  0.9345   3.04543
 0.55000    1.76     1.77   0.66488  0.9346   3.04688
 0.50000    1.76     1.77   0.66963  0.9334   3.04763
 0.45000    1.76     1.77   0.67149  0.9324   3.04470
 0.40000    1.76     1.77   0.67248  0.9320   3.04648
 0.35000    1.76     1.77   0.67421  0.9320   3.04705
 0.30000    1.76     1.77   0.67443  0.9325   3.04523
 0.25000    1.76     1.77   0.67507  0.9325   3.04471
 0.20000    1.76     1.77   0.67468  0.9329   3.04492
 0.15000    1.76     1.77   0.67556  0.9322   3.04486
 0.10000    1.76     1.77   0.67721  0.9319   3.04547
 0.05000    1.76     1.77   0.67697  0.9315   3.04334
-0.00000    1.76     1.77   0.67723  0.9315   3.04658
