 Field[T] Tsmpl[K] Tcntr[K] Signal
 0.00000    1.84     1.86   7.11190
 0.05000    1.84     1.86   7.11660
 0.10000    1.84     1.86   7.11450
 0.15000    1.84     1.86   7.11290
 0.20000    1.84     1.86   7.11740
 0.25000    1.84     1.86   7.11490
 0.30000    1.84     1.86   7.11570
 0.35000    1.84     1.86   7.11230
 0.40000    1.84     1.86   7.11200
 0.45000    1.84     1.86   7.11320
 0.50000    1.84     1.86   7.11470
 0.55000    1.84     1.86   7.11410
 0.60000    1.84     1.86   7.11540
 0.65000    1.84     1.86   7.11250
 0.70000    1.84     1.86   7.11380
 0.75000    1.84     1.86   7.11760
 0.80000    1.84     1.86   7.11310
 0.85000    1.84     1.86   7.11220
 0.90000    1.84     1.86   7.11540
 0.95000    1.84     1.86   7.11120
 1.00000    1.84     1.86   7.11470
 1.05000    1.84     1.86   7.11270
 1.10000    1.84     1.86   7.11060
 1.15000    1.84     1.86   7.10900
 1.20000    1.84     1.86   7.10720
 1.25000    1.84     1.86   7.10530
 1.30000    1.84     1.86   7.10230
 1.35000    1.84     1.86   7.10260
 1.40000    1.84     1.87   7.09930
 1.45000    1.84     1.87   7.09810
 1.50000    1.84     1.87   7.10170
 1.55000    1.84     1.87   7.09820
 1.60000    1.84     1.87   7.09800
 1.65000    1.84     1.87   7.09360
 1.70000    1.84     1.87   7.09620
 1.75000    1.84     1.87   7.09480
 1.80000    1.84     1.87   7.09180
 1.85000    1.84     1.87   7.08360
 1.90000    1.84     1.87   7.07550
 1.95000    1.84     1.87   7.05880
 2.00000    1.84     1.87   7.04680
 2.05000    1.84     1.87   7.01750
 2.10000    1.84     1.87   6.99030
 2.15000    1.85     1.87   6.96870
 2.20000    1.85     1.87   6.96370
 2.25000    1.85     1.87   6.96860
 2.30000    1.85     1.88   6.96030
 2.35000    1.85     1.88   6.96680
 2.40000    1.85     1.88   6.97190
 2.45000    1.85     1.88   6.97960
 2.50000    1.85     1.88   6.98510
 2.55000    1.85     1.88   6.98570
 2.60000    1.85     1.88   6.99120
 2.65000    1.85     1.88   6.99470
 2.70000    1.85     1.88   6.99750
 2.75000    1.85     1.88   7.00170
 2.80000    1.85     1.88   7.00950
 2.85000    1.85     1.88   7.01140
 2.90000    1.85     1.88   7.01200
 2.95000    1.85     1.88   7.01490
 3.00000    1.85     1.88   7.01930
 3.05000    1.85     1.88   7.02200
 3.10000    1.85     1.88   7.01950
 3.15000    1.85     1.88   7.02340
 3.20000    1.85     1.89   7.02390
 3.25000    1.85     1.89   7.02490
 3.30000    1.85     1.89   7.02680
 3.35000    1.85     1.89   7.02770
 3.40000    1.85     1.89   7.02810
 3.45000    1.85     1.89   7.02610
 3.50000    1.85     1.89   7.02350
 3.55000    1.85     1.89   7.01760
 3.60000    1.85     1.89   7.01920
 3.65000    1.86     1.89   7.01320
 3.70000    1.86     1.89   7.01470
 3.75000    1.86     1.89   7.01040
 3.80000    1.86     1.89   7.00660
 3.85000    1.86     1.89   7.01380
 3.90000    1.86     1.89   7.01620
 3.95000    1.86     1.89   7.01580
 4.00000    1.86     1.89   7.02530
 4.05000    1.86     1.89   7.02900
 4.10000    1.86     1.89   7.01730
 4.15000    1.86     1.89   7.01890
 4.20000    1.86     1.90   7.01500
 4.25000    1.86     1.90   7.01060
 4.30000    1.86     1.90   7.00960
 4.35000    1.86     1.90   7.01060
 4.40000    1.86     1.90   7.01280
 4.45000    1.86     1.90   7.00700
 4.50000    1.86     1.90   7.00900
 4.55000    1.86     1.90   7.00980
 4.60000    1.86     1.90   7.00620
 4.65000    1.86     1.90   7.00460
 4.70000    1.86     1.90   7.00730
 4.75000    1.86     1.90   7.00340
 4.80000    1.86     1.90   7.00370
 4.85000    1.86     1.90   6.99680
 4.90000    1.86     1.90   6.99460
 4.95000    1.86     1.90   7.00000
 5.00000    1.86     1.90   6.99760
 5.00000    1.86     1.90   6.99680
 4.95000    1.86     1.90   6.99710
 4.90000    1.86     1.90   7.00120
 4.85000    1.86     1.90   6.99880
 4.80000    1.86     1.90   7.00150
 4.75000    1.86     1.90   7.00610
 4.70000    1.86     1.90   7.00390
 4.65000    1.86     1.90   7.00630
 4.60000    1.86     1.90   7.00510
 4.55000    1.86     1.90   7.00190
 4.50000    1.86     1.90   7.00290
 4.45000    1.86     1.90   7.00770
 4.40000    1.86     1.90   7.00440
 4.35000    1.86     1.90   7.00680
 4.30000    1.86     1.90   7.00900
 4.25000    1.86     1.90   7.01120
 4.20000    1.86     1.90   7.00950
 4.15000    1.86     1.89   7.01210
 4.10000    1.86     1.89   7.01200
 4.05000    1.86     1.89   7.01630
 4.00000    1.86     1.89   7.01650
 3.95000    1.86     1.89   7.02780
 3.90000    1.86     1.89   7.02660
 3.85000    1.86     1.89   7.02130
 3.80000    1.86     1.89   7.01680
 3.75000    1.86     1.89   7.01710
 3.70000    1.85     1.89   7.01900
 3.65000    1.85     1.89   7.01420
 3.60000    1.85     1.89   7.01230
 3.55000    1.85     1.89   7.01040
 3.50000    1.85     1.89   7.00810
 3.45000    1.85     1.89   7.01180
 3.40000    1.85     1.88   7.01190
 3.35000    1.85     1.88   7.01120
 3.30000    1.85     1.88   7.00940
 3.25000    1.85     1.88   7.01020
 3.20000    1.85     1.88   7.00980
 3.15000    1.85     1.88   7.00980
 3.10000    1.85     1.88   7.00400
 3.05000    1.85     1.88   7.00880
 3.00000    1.85     1.88   7.01050
 2.95000    1.85     1.88   7.00700
 2.90000    1.85     1.88   7.00430
 2.85000    1.85     1.88   7.00610
 2.80000    1.85     1.88   7.00130
 2.75000    1.85     1.88   6.99660
 2.70000    1.85     1.88   6.99390
 2.65000    1.85     1.88   6.98720
 2.60000    1.85     1.88   6.98190
 2.55000    1.85     1.88   6.97350
 2.50000    1.85     1.88   6.97440
 2.45000    1.85     1.88   6.96610
 2.40000    1.85     1.88   6.96070
 2.35000    1.85     1.87   6.95240
 2.30000    1.85     1.87   6.94630
 2.25000    1.84     1.87   6.93980
 2.20000    1.84     1.87   6.94260
 2.15000    1.84     1.87   6.95470
 2.10000    1.84     1.87   6.97020
 2.05000    1.84     1.87   6.99830
 2.00000    1.84     1.87   7.02500
 1.95000    1.84     1.87   7.04980
 1.90000    1.84     1.87   7.06770
 1.85000    1.84     1.87   7.07980
 1.80000    1.84     1.87   7.08990
 1.75000    1.84     1.87   7.09480
 1.70000    1.84     1.87   7.11390
 1.65000    1.84     1.87   7.12180
 1.60000    1.84     1.87   7.11890
 1.55000    1.84     1.87   7.11420
 1.50000    1.84     1.87   7.11100
 1.45000    1.84     1.87   7.10920
 1.40000    1.84     1.87   7.10840
 1.35000    1.84     1.87   7.11030
 1.30000    1.84     1.87   7.10500
 1.25000    1.84     1.87   7.11190
 1.20000    1.84     1.87   7.10830
 1.15000    1.84     1.87   7.11130
 1.10000    1.84     1.87   7.10980
 1.05000    1.84     1.87   7.11040
 1.00000    1.84     1.87   7.10970
 0.95000    1.84     1.87   7.11000
 0.90000    1.84     1.87   7.11080
 0.85000    1.84     1.86   7.11310
 0.80000    1.84     1.86   7.10980
 0.75000    1.84     1.86   7.11150
 0.70000    1.84     1.86   7.11550
 0.65000    1.84     1.86   7.11410
 0.60000    1.84     1.86   7.11260
 0.55000    1.84     1.86   7.11300
 0.50000    1.84     1.86   7.11330
 0.45000    1.84     1.86   7.11350
 0.40000    1.84     1.86   7.11350
 0.35000    1.84     1.86   7.11420
 0.30000    1.84     1.86   7.11800
 0.25000    1.84     1.86   7.11660
 0.20000    1.84     1.86   7.11970
 0.15000    1.84     1.86   7.11980
 0.10000    1.84     1.86   7.12430
 0.05000    1.84     1.86   7.12610
-0.00000    1.84     1.86   7.12300
