 Field[T] Tsmpl[K] Tcntr[K] Signal   Mirror[MM]
 0.00000    4.30     2.98   1.54642  2.8674
 0.05000    4.30     2.99   1.54704  2.8675
 0.10000    4.30     2.99   1.54667  2.8674
 0.15000    4.30     2.98   1.54542  2.8680
 0.20000    4.30     2.99   1.54630  2.8677
 0.25000    4.30     2.99   1.54556  2.8675
 0.30000    4.31     2.99   1.54500  2.8677
 0.35000    4.31     2.99   1.54431  2.8683
 0.40000    4.31     3.00   1.54366  2.8682
 0.45000    4.32     3.00   1.54324  2.8680
 0.50000    4.32     3.00   1.54203  2.8681
 0.55000    4.32     2.99   1.54157  2.8679
 0.60000    4.32     3.00   1.54119  2.8677
 0.65000    4.33     3.00   1.54033  2.8679
 0.70000    4.34     3.00   1.53979  2.8679
 0.75000    4.34     3.00   1.53734  2.8685
 0.80000    4.34     2.98   1.53700  2.8679
 0.85000    4.33     2.98   1.53520  2.8684
 0.90000    4.32     2.97   1.53406  2.8681
 0.95000    4.32     2.98   1.53199  2.8684
 1.00000    4.32     2.98   1.52983  2.8685
 1.05000    4.32     2.98   1.52776  2.8684
 1.10000    4.32     2.98   1.52573  2.8682
 1.15000    4.31     2.97   1.52187  2.8681
 1.20000    4.30     2.98   1.51945  2.8679
 1.25000    4.30     2.98   1.51616  2.8677
 1.30000    4.30     2.98   1.51703  2.8674
 1.35000    4.30     2.97   1.51891  2.8671
 1.40000    4.29     2.98   1.52034  2.8669
 1.45000    4.29     2.99   1.52325  2.8672
 1.50000    4.30     3.00   1.52627  2.8673
 1.55000    4.30     3.00   1.52782  2.8675
 1.60000    4.29     2.96   1.52535  2.8672
 1.65000    4.28     2.97   1.52951  2.8669
 1.70000    4.27     2.99   1.52963  2.8669
 1.75000    4.26     2.97   1.53005  2.8671
 1.80000    4.26     2.98   1.52980  2.8672
 1.85000    4.25     2.97   1.53009  2.8673
 1.90000    4.25     2.98   1.53005  2.8674
 1.95000    4.26     2.99   1.53103  2.8675
 2.00000    4.26     2.99   1.53116  2.8677
 2.05000    4.26     2.99   1.53131  2.8678
 2.10000    4.26     2.99   1.53140  2.8678
 2.15000    4.26     3.00   1.53161  2.8688
 2.20000    4.27     3.00   1.53209  2.8685
 2.25000    4.27     2.99   1.53146  2.8690
 2.30000    4.28     3.00   1.53241  2.8687
 2.35000    4.28     3.00   1.53264  2.8687
 2.40000    4.29     3.00   1.53285  2.8689
 2.45000    4.30     3.01   1.53257  2.8689
 2.50000    4.30     3.00   1.53236  2.8693
 2.55000    4.30     3.00   1.53188  2.8693
 2.60000    4.34     3.34   1.54226  2.8691
 2.65000    4.93     4.79   1.56040  2.8695
 2.70000    0.00     4.11   1.56479  2.8702
 2.75000    5.49     3.81   1.56462  2.8701
 2.80000    5.58     3.70   1.56479  2.8702
 2.85000    5.65     3.59   1.56508  2.8703
 2.90000    5.69     3.52   1.56415  2.8704
 2.95000    5.70     3.45   1.56439  2.8704
 3.00000    5.70     3.38   1.56320  2.8707
 3.05000    5.68     3.34   1.56319  2.8709
 3.10000    5.65     3.28   1.56185  2.8710
 3.15000    5.62     3.25   1.56141  2.8713
 3.20000    5.59     3.21   1.56010  2.8716
 3.25000    5.56     3.18   1.55955  2.8716
 3.30000    5.53     3.17   1.55881  2.8718
 3.35000    5.50     3.14   1.55804  2.8720
 3.40000    5.47     3.12   1.55819  2.8719
 3.45000    5.46     3.10   1.55800  2.8720
 3.50000    5.44     3.08   1.55720  2.8724
 3.55000    5.42     3.07   1.55695  2.8725
 3.60000    5.41     3.06   1.55662  2.8725
 3.65000    5.40     3.07   1.55671  2.8729
 3.70000    5.40     3.04   1.55637  2.8731
 3.75000    5.39     3.03   1.55587  2.8732
 3.80000    5.39     3.03   1.55547  2.8734
 3.85000    5.38     3.03   1.55597  2.8736
 3.90000    5.38     3.04   1.55555  2.8739
 3.95000    5.39     3.02   1.55561  2.8740
 4.00000    5.39     3.02   1.55539  2.8744
 4.00000    5.39     3.02   1.55521  2.8744
 3.95000    5.38     3.02   1.55578  2.8741
 3.90000    5.39     3.03   1.55621  2.8740
 3.85000    5.40     3.02   1.55633  2.8738
 3.80000    5.40     3.02   1.55669  2.8735
 3.75000    5.40     3.02   1.55702  2.8735
 3.70000    5.41     3.03   1.55767  2.8732
 3.65000    5.42     3.02   1.55824  2.8731
 3.60000    5.42     3.02   1.55796  2.8731
 3.55000    5.43     3.03   1.55832  2.8729
 3.50000    5.44     3.02   1.55871  2.8728
 3.45000    5.45     3.01   1.55910  2.8726
 3.40000    5.45     3.01   1.55922  2.8725
 3.35000    5.45     3.01   1.55972  2.8724
 3.30000    5.46     3.01   1.55968  2.8723
 3.25000    5.46     3.03   1.56062  2.8723
 3.20000    5.47     3.01   1.56019  2.8721
 3.15000    5.48     3.01   1.56120  2.8722
 3.10000    5.48     3.01   1.56067  2.8723
 3.05000    5.49     3.01   1.56150  2.8718
 3.00000    5.49     3.03   1.56076  2.8717
 2.95000    5.50     3.01   1.56095  2.8715
 2.90000    5.50     3.01   1.56052  2.8712
 2.85000    5.50     3.01   1.56076  2.8713
 2.80000    5.51     3.02   1.56003  2.8709
 2.75000    5.52     3.02   1.56075  2.8710
 2.70000    5.52     3.00   1.56058  2.8708
 2.65000    5.53     3.00   1.56091  2.8708
 2.60000    5.53     3.01   1.56158  2.8708
 2.55000    5.54     3.00   1.56198  2.8705
 2.50000    5.54     3.01   1.56183  2.8707
 2.45000    5.55     3.02   1.56209  2.8706
 2.40000    5.56     3.01   1.56209  2.8702
 2.35000    5.57     3.01   1.56219  2.8701
 2.30000    5.58     3.01   1.56178  2.8700
 2.25000    5.58     3.00   1.56204  2.8700
 2.20000    5.59     3.01   1.56245  2.8699
 2.15000    5.60     3.01   1.56210  2.8699
 2.10000    5.61     3.00   1.56256  2.8703
 2.05000    5.62     3.00   1.56252  2.8701
 2.00000    5.63     3.00   1.56336  2.8692
 1.95000    5.64     3.01   1.56224  2.8696
 1.90000    5.65     3.01   1.56327  2.8700
 1.85000    5.66     3.00   1.56367  2.8698
 1.80000    5.66     3.00   1.56320  2.8697
 1.75000    5.66     3.01   1.56296  2.8692
 1.70000    5.67     3.02   1.56320  2.8685
 1.65000    5.67     3.00   1.56281  2.8683
 1.60000    5.67     3.00   1.56258  2.8682
 1.55000    5.67     3.00   1.56134  2.8681
 1.50000    5.67     3.00   1.56034  2.8680
 1.45000    5.67     3.01   1.55902  2.8679
 1.40000    5.66     3.01   1.55622  2.8678
 1.35000    5.66     2.99   1.55342  2.8682
 1.30000    5.65     3.00   1.55118  2.8686
 1.25000    5.64     3.00   1.55151  2.8689
 1.20000    5.63     3.01   1.55343  2.8693
 1.15000    5.62     3.02   1.55587  2.8695
 1.10000    5.61     3.00   1.55865  2.8699
 1.05000    5.60     3.00   1.56020  2.8698
 1.00000    5.60     3.00   1.56246  2.8697
 0.95000    5.59     3.00   1.56430  2.8696
 0.90000    5.59     3.01   1.56627  2.8698
 0.85000    5.59     3.00   1.56760  2.8696
 0.80000    5.59     2.99   1.56909  2.8696
 0.75000    5.59     3.00   1.56982  2.8695
 0.70000    5.58     3.00   1.57188  2.8693
 0.65000    5.58     3.01   1.57255  2.8692
 0.60000    5.57     2.99   1.57332  2.8692
 0.55000    5.56     2.99   1.57439  2.8691
 0.50000    5.55     2.99   1.57475  2.8693
 0.45000    5.54     3.00   1.57545  2.8691
 0.40000    5.53     3.00   1.57644  2.8691
 0.35000    5.52     3.00   1.57638  2.8691
 0.30000    5.51     2.99   1.57737  2.8689
 0.25000    5.51     2.99   1.57765  2.8690
 0.20000    5.50     3.01   1.57844  2.8690
 0.15000    5.49     2.99   1.57813  2.8689
 0.10000    5.48     2.99   1.57923  2.8690
 0.05000    5.47     2.99   1.57881  2.8688
-0.00000    5.46     2.98   1.57965  2.8687
