 Field[T] Tsmpl[K] Tcntr[K] Signal Mirror[MM] RefSignal
 0.00000    4.41     3.00   1.06730  2.7889   0.57282
 0.05000    4.41     3.01   1.06915  2.7891   0.57428
 0.10000    4.41     3.00   1.06994  2.7895   0.57419
 0.15000    4.41     3.00   1.07138  2.7896   0.57565
 0.20000    4.41     3.01   1.07275  2.7896   0.57697
 0.25000    4.41     3.00   1.07378  2.7897   0.57610
 0.30000    4.41     3.00   1.07473  2.7898   0.57720
 0.35000    4.41     3.01   1.07554  2.7898   0.57722
 0.40000    4.40     3.00   1.07700  2.7900   0.57644
 0.45000    4.40     2.99   1.07782  2.7902   0.57838
 0.50000    4.40     3.01   1.07885  2.7902   0.57921
 0.55000    4.40     3.00   1.07938  2.7905   0.57911
 0.60000    4.40     3.00   1.08005  2.7906   0.57891
 0.65000    4.40     3.01   1.08070  2.7907   0.58035
 0.70000    4.40     2.99   1.08097  2.7906   0.58000
 0.75000    4.39     3.00   1.08126  2.7908   0.57943
 0.80000    4.39     3.00   1.08277  2.7910   0.57968
 0.85000    4.39     3.00   1.08299  2.7910   0.58094
 0.90000    4.39     3.00   1.08299  2.7914   0.58234
 0.95000    4.39     3.00   1.08351  2.7916   0.58166
 1.00000    4.39     3.01   1.08375  2.7915   0.58135
 1.05000    4.39     3.00   1.08320  2.7917   0.58266
 1.10000    4.39     2.99   1.08356  2.7919   0.58294
 1.15000    4.39     3.00   1.08369  2.7920   0.58352
 1.20000    4.40     2.99   1.08321  2.7919   0.58483
 1.25000    4.40     2.99   1.08344  2.7919   0.58286
 1.30000    4.41     3.00   1.08266  2.7921   0.58528
 1.35000    4.42     3.00   1.08213  2.7924   0.58407
 1.40000    4.43     3.00   1.08236  2.7923   0.58437
 1.45000    4.44     3.01   1.08152  2.7924   0.58470
 1.50000    4.45     3.00   1.08151  2.7925   0.58413
 1.55000    4.45     3.00   1.07982  2.7926   0.58354
 1.60000    4.45     2.99   1.07882  2.7927   0.58474
 1.65000    4.45     3.01   1.07781  2.7927   0.58553
 1.70000    4.46     3.00   1.07736  2.7927   0.58564
 1.75000    4.46     2.99   1.07646  2.7927   0.58544
 1.80000    4.46     3.01   1.07566  2.7928   0.58515
 1.85000    4.46     3.00   1.07459  2.7928   0.58596
 1.90000    4.46     3.00   1.07322  2.7928   0.58599
 1.95000    4.47     3.01   1.07221  2.7928   0.58640
 2.00000    4.47     3.00   1.07139  2.7926   0.58562
 2.05000    4.48     3.00   1.07037  2.7924   0.58680
 2.10000    4.49     3.00   1.06981  2.7921   0.58649
 2.15000    4.49     3.01   1.06913  2.7920   0.58525
 2.20000    4.50     2.99   1.06931  2.7919   0.58643
 2.25000    4.51     3.00   1.06882  2.7921   0.58519
 2.30000    4.52     3.00   1.06916  2.7917   0.58747
 2.35000    4.53     3.00   1.06920  2.7916   0.58613
 2.40000    4.54     3.01   1.06936  2.7916   0.58779
 2.45000    4.54     3.01   1.06936  2.7915   0.58675
 2.50000    4.54     3.00   1.06937  2.7915   0.58757
 2.55000    4.54     3.00   1.06945  2.7913   0.58595
 2.60000    4.54     3.00   1.06931  2.7915   0.58715
 2.65000    4.54     3.01   1.06957  2.7914   0.58670
 2.70000    4.54     3.00   1.07010  2.7913   0.58693
 2.75000    4.54     3.00   1.07015  2.7912   0.58746
 2.80000    4.54     3.01   1.07012  2.7912   0.58672
 2.85000    4.54     3.00   1.06988  2.7911   0.58879
 2.90000    4.54     3.01   1.07041  2.7911   0.58801
 2.95000    4.54     3.02   1.07047  2.7912   0.58669
 3.00000    4.54     3.01   1.07086  2.7912   0.58817
 3.05000    4.55     3.00   1.07122  2.7911   0.58827
 3.10000    4.55     3.01   1.07114  2.7912   0.58764
 3.15000    4.55     3.00   1.07144  2.7910   0.58828
 3.20000    4.55     3.01   1.07155  2.7910   0.58811
 3.25000    4.55     3.01   1.07142  2.7911   0.58853
 3.30000    4.56     3.03   1.07227  2.7910   0.58838
 3.35000    4.57     3.01   1.07196  2.7912   0.58937
 3.40000    4.58     3.01   1.07190  2.7914   0.58925
 3.45000    4.59     3.03   1.07197  2.7913   0.58859
 3.50000    4.61     3.00   1.07212  2.7912   0.58971
 3.55000    4.62     3.01   1.07218  2.7912   0.58812
 3.60000    4.63     3.01   1.07261  2.7910   0.58965
 3.65000    4.63     3.01   1.07294  2.7910   0.58790
 3.70000    4.64     3.01   1.07319  2.7909   0.58873
 3.75000    4.64     3.02   1.07323  2.7910   0.58733
 3.80000    4.64     3.01   1.07255  2.7911   0.58874
 3.85000    4.64     3.01   1.07344  2.7912   0.58789
 3.90000    4.65     3.02   1.07352  2.7911   0.58913
 3.95000    4.65     3.01   1.07374  2.7910   0.58782
 4.00000    4.65     3.01   1.07434  2.7911   0.58824
 4.05000    4.65     3.01   1.07420  2.7911   0.58842
 4.10000    4.65     3.03   1.07387  2.7912   0.58949
 4.15000    4.66     3.00   1.07410  2.7912   0.58813
 4.20000    4.66     3.01   1.07430  2.7911   0.58805
 4.25000    4.65     3.01   1.07416  2.7909   0.58881
 4.30000    4.64     3.02   1.07417  2.7912   0.58853
 4.35000    4.64     3.00   1.07439  2.7910   0.59053
 4.40000    4.64     3.00   1.07462  2.7912   0.58857
 4.45000    4.64     3.02   1.07479  2.7913   0.59001
 4.50000    4.64     3.02   1.07470  2.7913   0.59071
 4.55000    4.64     3.02   1.07494  2.7913   0.58961
 4.60000    4.64     3.02   1.07485  2.7912   0.58986
 4.65000    4.64     3.02   1.07472  2.7913   0.58914
 4.70000    4.65     3.01   1.07531  2.7913   0.58881
 4.75000    4.65     3.02   1.07511  2.7914   0.59075
 4.80000    4.65     3.01   1.07490  2.7916   0.58849
 4.85000    4.66     3.00   1.07514  2.7917   0.58862
 4.90000    4.66     3.03   1.07468  2.7913   0.58922
 4.95000    4.67     3.01   1.07491  2.7913   0.58868
 5.00000    4.67     3.01   1.07465  2.7915   0.58885
