 Field[T] Tsmpl[K] Tcntr[K] Signal Mirror[MM] RefSignal
 0.00000    4.72     2.94   1.23958  2.7839   6.70666
 0.05000    4.70     2.93   1.24034  2.7840   6.70673
 0.10000    4.69     2.94   1.23968  2.7840   6.70467
 0.15000    4.68     2.94   1.23991  2.7838   6.70344
 0.20000    4.67     2.92   1.23977  2.7842   6.70319
 0.25000    4.66     2.93   1.23960  2.7841   6.70149
 0.30000    4.65     2.93   1.23935  2.7838   6.69899
 0.35000    4.64     2.95   1.23934  2.7843   6.69934
 0.40000    4.64     2.93   1.23914  2.7847   6.69871
 0.45000    4.63     2.94   1.23837  2.7847   6.69634
 0.50000    4.62     2.94   1.23829  2.7846   6.69955
 0.55000    4.61     2.95   1.23819  2.7849   6.69916
 0.60000    4.61     2.95   1.23770  2.7848   6.69561
 0.65000    4.61     2.94   1.23706  2.7849   6.69557
 0.70000    4.60     2.95   1.23638  2.7853   6.69487
 0.75000    4.60     2.95   1.23607  2.7854   6.69489
 0.80000    4.59     2.93   1.23519  2.7855   6.69348
 0.85000    4.57     2.93   1.23479  2.7857   6.69279
 0.90000    4.56     2.93   1.23380  2.7862   6.69372
 0.95000    4.55     2.95   1.23260  2.7860   6.69153
 1.00000    4.54     2.93   1.23200  2.7860   6.69007
 1.05000    4.53     2.94   1.23133  2.7859   6.69231
 1.10000    4.52     2.95   1.23036  2.7859   6.69242
 1.15000    4.52     2.95   1.22923  2.7859   6.69018
 1.20000    4.51     2.94   1.22653  2.7860   6.68854
 1.25000    4.51     2.95   1.22627  2.7857   6.68846
 1.30000    4.51     2.96   1.22469  2.7859   6.68389
 1.35000    4.51     2.96   1.22361  2.7861   6.68468
 1.40000    4.51     2.95   1.22162  2.7858   6.68431
 1.45000    4.51     2.96   1.22071  2.7857   6.68378
 1.50000    4.50     2.96   1.21858  2.7861   6.68558
 1.55000    4.50     2.96   1.21708  2.7859   6.68293
 1.60000    4.51     2.96   1.21588  2.7855   6.68248
 1.65000    4.51     2.95   1.21475  2.7852   6.68403
 1.70000    4.51     2.98   1.21326  2.7849   6.68357
 1.75000    4.51     2.96   1.21322  2.7848   6.68363
 1.80000    4.51     2.97   1.21247  2.7846   6.68202
 1.85000    4.52     2.97   1.21179  2.7843   6.68150
 1.90000    4.53     2.97   1.21210  2.7842   6.68158
 1.95000    4.54     2.98   1.21193  2.7838   6.68014
 2.00000    4.55     2.99   1.21214  2.7839   6.68117
 2.05000    4.56     2.98   1.21210  2.7837   6.67974
 2.10000    4.57     2.98   1.21240  2.7836   6.68026
 2.15000    4.57     3.00   1.21226  2.7836   6.67886
 2.20000    4.58     2.99   1.21293  2.7834   6.67508
 2.25000    4.58     2.99   1.21298  2.7832   6.67611
 2.30000    4.59     3.00   1.21312  2.7832   6.67804
 2.35000    4.59     3.00   1.21358  2.7830   6.67700
 2.40000    4.59     2.99   1.21399  2.7830   6.67720
 2.45000    4.59     2.99   1.21452  2.7826   6.67680
 2.50000    4.59     3.00   1.21489  2.7824   6.67323
 2.55000    4.59     3.01   1.21512  2.7824   6.67543
 2.60000    4.59     2.99   1.21556  2.7823   6.67692
 2.65000    4.59     3.00   1.21560  2.7824   6.67501
 2.70000    4.59     3.00   1.21603  2.7823   6.67684
 2.75000    4.59     3.02   1.21643  2.7822   6.67478
 2.80000    4.60     3.00   1.21700  2.7821   6.67118
 2.85000    4.60     3.01   1.21722  2.7820   6.67498
 2.90000    4.61     3.01   1.21735  2.7818   6.66797
 2.95000    4.61     3.01   1.21734  2.7819   6.67384
 3.00000    4.62     3.02   1.21830  2.7819   6.67296
 3.05000    4.63     3.01   1.21832  2.7820   6.67151
 3.10000    4.64     3.01   1.21885  2.7819   6.67080
 3.15000    4.66     3.01   1.21937  2.7819   6.67058
 3.20000    4.67     3.02   1.21975  2.7820   6.67095
 3.25000    4.68     3.02   1.21971  2.7820   6.67027
 3.30000    4.70     3.02   1.22006  2.7818   6.67058
 3.35000    4.71     3.03   1.22021  2.7818   6.67082
 3.40000    4.73     3.05   1.22048  2.7818   6.67065
 3.45000    4.75     3.03   1.22093  2.7817   6.67324
 3.50000    4.77     3.03   1.22111  2.7818   6.67585
 3.55000    4.78     3.02   1.22131  2.7817   6.67021
 3.60000    4.78     3.03   1.22126  2.7819   6.67353
 3.65000    4.80     3.03   1.22185  2.7818   6.66682
 3.70000    4.81     3.05   1.22188  2.7820   6.66844
 3.75000    4.82     3.04   1.22214  2.7820   6.66758
 3.80000    4.83     3.03   1.22242  2.7820   6.66634
 3.85000    4.84     3.03   1.22247  2.7819   6.66537
 3.90000    4.85     3.04   1.22271  2.7820   6.66686
 3.95000    4.86     3.04   1.22287  2.7821   6.66928
 4.00000    4.87     3.03   1.22297  2.7822   6.66517
 4.05000    4.87     3.03   1.22292  2.7821   6.66356
 4.10000    4.88     3.02   1.22321  2.7820   6.66627
 4.15000    4.89     3.03   1.22344  2.7820   6.66603
 4.20000    4.90     3.04   1.22329  2.7820   6.66527
 4.25000    4.91     3.02   1.22361  2.7819   6.66652
 4.30000    4.91     3.03   1.22370  2.7821   6.66361
 4.35000    4.92     3.03   1.22356  2.7822   6.66773
 4.40000    4.93     3.03   1.22346  2.7822   6.66233
 4.45000    4.94     3.05   1.22404  2.7823   6.66502
 4.50000    4.95     3.02   1.22419  2.7821   6.66505
 4.55000    4.96     3.03   1.22396  2.7822   6.66620
 4.60000    4.97     3.02   1.22443  2.7820   6.66528
 4.65000    4.98     3.02   1.22416  2.7821   6.66219
 4.70000    4.99     3.03   1.22406  2.7823   6.66442
 4.75000    5.00     3.04   1.22392  2.7822   6.66065
 4.80000    5.01     3.02   1.22412  2.7821   6.66122
 4.85000    5.03     3.03   1.22417  2.7820   6.66289
 4.90000    5.04     3.03   1.22413  2.7821   6.66284
 4.95000    5.05     3.01   1.22435  2.7821   6.66070
 5.00000    5.03     3.01   1.22393  2.7822   6.65910
 5.05000    5.06     3.03   1.22400  2.7821   6.66138
 5.10000    5.07     3.02   1.22422  2.7822   6.66142
 5.15000    5.08     3.02   1.22423  2.7821   6.65876
 5.20000    5.08     3.01   1.22420  2.7821   6.65819
 5.25000    5.09     3.03   1.22395  2.7824   6.65819
 5.30000    5.10     3.02   1.22392  2.7823   6.65496
 5.35000    5.11     3.01   1.22415  2.7824   6.65744
 5.40000    5.12     3.01   1.22400  2.7825   6.65534
 5.45000    5.14     3.01   1.22417  2.7823   6.65588
 5.50000    5.15     3.03   1.22400  2.7824   6.65853
 5.55000    5.16     3.02   1.22381  2.7827   6.65790
 5.60000    5.16     3.01   1.22358  2.7826   6.65768
 5.65000    5.18     3.02   1.22361  2.7825   6.65677
 5.70000    5.19     3.03   1.22348  2.7826   6.65880
 5.75000    5.19     3.01   1.22328  2.7827   6.65688
 5.80000    5.20     3.01   1.22342  2.7825   6.65455
 5.85000    5.22     3.02   1.22251  2.7827   6.65398
 5.90000    5.23     3.02   1.22264  2.7828   6.65185
 5.95000    5.24     3.01   1.22298  2.7828   6.65369
 6.00000    5.25     3.01   1.22251  2.7830   6.65440
 6.05000    5.25     3.01   1.22226  2.7831   6.65425
 6.10000    5.26     3.00   1.22253  2.7831   6.65154
 6.15000    5.26     3.00   1.22212  2.7829   6.65364
 6.20000    5.26     3.01   1.22200  2.7830   6.64966
 6.25000    5.27     3.00   1.22215  2.7831   6.64956
 6.30000    5.27     3.00   1.22180  2.7829   6.65077
 6.35000    5.28     3.01   1.22205  2.7829   6.65133
 6.40000    5.29     3.00   1.22227  2.7831   6.65090
 6.45000    5.30     3.00   1.22168  2.7830   6.65570
 6.50000    5.31     3.00   1.22171  2.7834   6.65254
 6.55000    5.32     3.00   1.22143  2.7833   6.65210
 6.60000    5.32     3.01   1.22093  2.7831   6.65188
 6.65000    5.33     3.01   1.22065  2.7832   6.64862
 6.70000    5.33     3.01   1.22104  2.7830   6.64831
 6.75000    5.33     2.98   1.22071  2.7834   6.65135
 6.80000    5.34     3.00   1.22060  2.7836   6.64777
 6.85000    5.36     3.01   1.22011  2.7838   6.65051
 6.90000    5.37     3.01   1.22020  2.7835   6.64879
 6.95000    5.38     3.00   1.22007  2.7836   6.65335
 7.00000    5.40     3.00   1.21907  2.7837   6.64780
 7.00000    5.40     3.00   1.21973  2.7836   6.64796
 6.95000    5.41     3.00   1.22024  2.7836   6.64877
 6.90000    5.41     3.00   1.22007  2.7837   6.64898
 6.85000    5.41     3.02   1.22047  2.7836   6.65043
 6.80000    5.42     3.02   1.22125  2.7834   6.65298
 6.75000    5.44     3.03   1.22132  2.7835   6.65520
 6.70000    5.45     3.04   1.22164  2.7833   6.65461
 6.65000    5.48     3.05   1.22160  2.7832   6.65255
 6.60000    5.49     3.05   1.22222  2.7835   6.65594
 6.55000    5.53     3.07   1.22249  2.7832   6.65223
 6.50000    5.55     3.08   1.22327  2.7834   6.65471
 6.45000    5.57     3.07   1.22328  2.7834   6.65746
 6.40000    5.60     3.08   1.22388  2.7834   6.65771
 6.35000    5.63     3.08   1.22388  2.7831   6.65645
 6.30000    5.66     3.09   1.22436  2.7830   6.65796
 6.25000    5.69     3.09   1.22419  2.7830   6.65277
 6.20000    5.72     3.10   1.22471  2.7832   6.65614
 6.15000    5.75     3.09   1.22494  2.7832   6.65498
 6.10000    5.78     3.08   1.22536  2.7831   6.65418
 6.05000    5.80     3.08   1.22565  2.7831   6.65759
 6.00000    5.82     3.09   1.22608  2.7832   6.65994
 5.95000    5.84     3.08   1.22617  2.7831   6.65671
 5.90000    5.87     3.10   1.22643  2.7832   6.66004
 5.85000    5.89     3.08   1.22691  2.7831   6.65900
 5.80000    5.91     3.08   1.22694  2.7830   6.66143
 5.75000    5.93     3.08   1.22706  2.7830   6.65707
 5.70000    5.95     3.09   1.22727  2.7830   6.66441
 5.65000    5.97     3.09   1.22763  2.7829   6.65956
 5.60000    5.98     3.09   1.22776  2.7829   6.66022
 5.55000    6.00     3.08   1.22809  2.7829   6.66088
 5.50000    6.02     3.08   1.22832  2.7829   6.66140
 5.45000    6.03     3.07   1.22845  2.7827   6.66090
 5.40000    6.04     3.07   1.22897  2.7827   6.66102
 5.35000    6.05     3.08   1.22881  2.7825   6.66502
 5.30000    6.07     3.07   1.22874  2.7827   6.66255
 5.25000    6.08     3.06   1.22910  2.7825   6.66281
 5.20000    6.09     3.06   1.22839  2.7825   6.66107
 5.15000    6.10     3.07   1.22902  2.7827   6.66521
 5.10000    6.11     3.08   1.22957  2.7828   6.66718
 5.05000    6.13     3.06   1.22960  2.7828   6.66556
 5.00000    6.14     3.06   1.23046  2.7826   6.66553
 4.95000    6.15     3.06   1.22994  2.7825   6.66583
 4.90000    6.17     3.05   1.23042  2.7824   6.67003
 4.85000    6.17     3.04   1.23018  2.7825   6.66800
 4.80000    6.18     3.04   1.23091  2.7825   6.67065
 4.75000    6.18     3.04   1.23059  2.7826   6.67099
 4.70000    6.19     3.05   1.23086  2.7826   6.66919
 4.65000    6.19     3.04   1.23139  2.7826   6.67059
 4.60000    6.20     3.04   1.23162  2.7825   6.66935
 4.55000    6.20     3.03   1.23170  2.7824   6.67294
 4.50000    6.20     3.03   1.23102  2.7826   6.67107
 4.45000    6.21     3.03   1.23113  2.7825   6.67110
 4.40000    6.22     3.03   1.23173  2.7823   6.67142
 4.35000    6.22     3.02   1.23179  2.7822   6.67171
 4.30000    6.22     3.02   1.23159  2.7821   6.67119
 4.25000    6.22     3.02   1.23148  2.7823   6.67257
 4.20000    6.23     3.03   1.23191  2.7823   6.67357
 4.15000    6.24     3.02   1.23198  2.7823   6.67387
 4.10000    6.24     3.02   1.23193  2.7823   6.67406
 4.05000    6.24     3.01   1.23165  2.7822   6.67521
 4.00000    6.24     3.02   1.23175  2.7823   6.67506
 3.95000    6.25     3.03   1.23241  2.7822   6.67363
 3.90000    6.25     3.01   1.23172  2.7822   6.67530
 3.85000    6.25     3.01   1.23181  2.7822   6.67535
 3.80000    6.25     3.01   1.23176  2.7822   6.67352
 3.75000    6.24     3.02   1.23135  2.7821   6.67435
 3.70000    6.24     3.01   1.23177  2.7823   6.67710
 3.65000    6.23     3.01   1.23123  2.7824   6.67740
 3.60000    6.22     3.01   1.23121  2.7823   6.67280
 3.55000    6.21     3.01   1.23136  2.7822   6.67336
 3.50000    6.21     3.02   1.23086  2.7823   6.67861
 3.45000    6.20     3.01   1.23107  2.7822   6.67840
 3.40000    6.18     3.02   1.23084  2.7823   6.67879
 3.35000    6.17     3.03   1.23041  2.7823   6.67770
 3.30000    6.16     3.01   1.23068  2.7822   6.67999
 3.25000    6.15     3.01   1.23020  2.7823   6.67653
 3.20000    6.14     3.00   1.23023  2.7823   6.68000
 3.15000    6.12     3.01   1.22927  2.7824   6.67887
 3.10000    6.11     3.00   1.22967  2.7824   6.67921
 3.05000    6.08     3.00   1.22924  2.7824   6.68043
 3.00000    6.07     3.01   1.22914  2.7825   6.68179
 2.95000    6.05     3.01   1.22907  2.7824   6.68367
 2.90000    6.04     3.00   1.22883  2.7824   6.67962
 2.85000    6.02     3.00   1.22823  2.7823   6.68277
 2.80000    6.01     2.99   1.22796  2.7825   6.68109
 2.75000    5.99     3.00   1.22764  2.7824   6.68334
 2.70000    5.99     3.02   1.22711  2.7826   6.68235
 2.65000    5.98     3.01   1.22705  2.7827   6.68152
 2.60000    5.97     3.01   1.22605  2.7828   6.68088
 2.55000    5.96     2.99   1.22638  2.7828   6.68297
 2.50000    5.95     3.00   1.22624  2.7831   6.68300
 2.45000    5.95     3.00   1.22594  2.7830   6.68468
 2.40000    5.93     3.00   1.22570  2.7831   6.68319
 2.35000    5.91     3.01   1.22579  2.7831   6.68771
 2.30000    5.90     3.01   1.22505  2.7832   6.68999
 2.25000    5.89     3.00   1.22516  2.7834   6.68611
 2.20000    5.87     3.00   1.22468  2.7835   6.68688
 2.15000    5.86     3.00   1.22464  2.7836   6.68548
 2.10000    5.84     3.01   1.22426  2.7838   6.68888
 2.05000    5.83     3.01   1.22446  2.7838   6.69013
 2.00000    5.82     3.00   1.22399  2.7842   6.69015
 1.95000    5.82     2.99   1.22462  2.7843   6.69221
 1.90000    5.81     3.00   1.22380  2.7844   6.68934
 1.85000    5.80     3.00   1.22427  2.7845   6.69213
 1.80000    5.80     3.01   1.22481  2.7847   6.69044
 1.75000    5.80     3.00   1.22479  2.7851   6.69100
 1.70000    5.80     3.00   1.22557  2.7850   6.69210
 1.65000    5.79     3.01   1.22615  2.7853   6.69015
 1.60000    5.79     3.01   1.22737  2.7855   6.68839
 1.55000    5.79     3.00   1.22868  2.7854   6.69045
 1.50000    5.79     3.00   1.22995  2.7856   6.69267
 1.45000    5.78     3.01   1.23110  2.7857   6.69471
 1.40000    5.78     3.01   1.23258  2.7858   6.69442
 1.35000    5.78     3.00   1.23343  2.7859   6.69316
 1.30000    5.77     2.99   1.23483  2.7859   6.69266
 1.25000    5.77     2.99   1.23672  2.7859   6.69456
 1.20000    5.76     2.99   1.23779  2.7859   6.69760
 1.15000    5.75     3.01   1.23861  2.7857   6.69672
 1.10000    5.74     2.99   1.24003  2.7857   6.69581
 1.05000    5.74     2.99   1.24074  2.7859   6.69458
 1.00000    5.73     3.01   1.24128  2.7856   6.69871
 0.95000    5.72     3.00   1.24112  2.7859   6.69394
 0.90000    5.71     2.99   1.24294  2.7855   6.69539
 0.85000    5.69     2.99   1.24332  2.7857   6.69997
 0.80000    5.68     3.00   1.24396  2.7855   6.69837
 0.75000    5.66     2.99   1.24392  2.7855   6.69716
 0.70000    5.65     3.01   1.24415  2.7853   6.69799
 0.65000    5.64     2.99   1.24479  2.7853   6.69745
 0.60000    5.64     3.00   1.24533  2.7853   6.69981
 0.55000    5.63     2.99   1.24573  2.7851   6.70245
 0.50000    5.62     3.00   1.24539  2.7849   6.69707
 0.45000    5.62     3.01   1.24592  2.7848   6.70136
 0.40000    5.61     3.00   1.24589  2.7847   6.70131
 0.35000    5.61     2.99   1.24612  2.7846   6.69904
 0.30000    5.61     2.98   1.24590  2.7846   6.70201
 0.25000    5.60     2.99   1.24571  2.7845   6.70136
 0.20000    5.60     3.00   1.24649  2.7846   6.70601
 0.15000    5.59     3.00   1.24651  2.7844   6.70183
 0.10000    5.58     2.99   1.24632  2.7845   6.70511
 0.05000    5.55     2.98   1.24589  2.7846   6.70595
-0.00000    5.53     2.98   1.24553  2.7845   6.70243
