 Field[T] Tsmpl[K] Tcntr[K] Signal Mirror[MM] RefSignal
 5.00000    5.21     3.04   1.08911  2.8159   4.50577
 4.95000    5.22     3.06   1.08915  2.8159   4.50577
 4.90000    5.24     3.04   1.08945  2.8158   4.50572
 4.85000    5.25     3.05   1.09001  2.8159   4.50681
 4.80000    5.26     3.06   1.08934  2.8158   4.50439
 4.75000    5.27     3.07   1.09007  2.8160   4.50660
 4.70000    5.29     3.07   1.09078  2.8162   4.50757
 4.65000    5.32     3.09   1.09114  2.8159   4.51093
 4.60000    5.35     3.08   1.09094  2.8160   4.50867
 4.55000    5.38     3.09   1.09076  2.8161   4.50859
 4.50000    5.39     3.10   1.09147  2.8161   4.50969
 4.45000    5.43     3.09   1.09185  2.8160   4.50932
 4.40000    5.45     3.09   1.09186  2.8159   4.50903
 4.35000    5.46     3.08   1.09208  2.8158   4.50903
 4.30000    5.48     3.08   1.09229  2.8157   4.51121
 4.25000    5.51     3.09   1.09264  2.8154   4.51159
 4.20000    5.51     3.09   1.09316  2.8157   4.51180
 4.15000    5.57     3.09   1.09333  2.8156   4.51333
 4.10000    5.57     3.08   1.09334  2.8156   4.51238
 4.05000    5.60     3.09   1.09306  2.8156   4.50950
 4.00000    5.61     3.09   1.09330  2.8154   4.51177
 3.95000    5.63     3.10   1.09389  2.8153   4.51222
 3.90000    5.66     3.08   1.09396  2.8155   4.51173
 3.85000    5.67     3.08   1.09415  2.8155   4.51269
 3.80000    5.68     3.08   1.09403  2.8154   4.51365
 3.75000    5.70     3.08   1.09433  2.8155   4.51394
 3.70000    5.72     3.10   1.09401  2.8154   4.51323
 3.65000    5.74     3.07   1.09400  2.8154   4.51502
 3.60000    5.75     3.07   1.09416  2.8155   4.51538
 3.55000    5.76     3.07   1.09458  2.8155   4.51479
 3.50000    5.78     3.06   1.09423  2.8154   4.51730
 3.45000    5.78     3.07   1.09443  2.8152   4.51689
 3.40000    5.80     3.07   1.09433  2.8152   4.51778
 3.35000    5.81     3.05   1.09440  2.8153   4.51669
 3.30000    5.81     3.06   1.09437  2.8152   4.51798
 3.25000    5.82     3.04   1.09439  2.8152   4.51916
 3.20000    5.82     3.06   1.09448  2.8152   4.51962
 3.15000    5.82     3.06   1.09453  2.8153   4.51558
 3.10000    5.83     3.04   1.09436  2.8151   4.51809
 3.05000    5.83     3.03   1.09431  2.8150   4.51949
 3.00000    5.84     3.04   1.09380  2.8151   4.51750
 2.95000    5.84     3.03   1.09415  2.8151   4.51952
 2.90000    5.84     3.04   1.09379  2.8151   4.52044
 2.85000    5.84     3.03   1.09393  2.8151   4.51973
 2.80000    5.83     3.03   1.09367  2.8149   4.51982
 2.75000    5.82     3.03   1.09341  2.8149   4.52096
 2.70000    5.82     3.03   1.09340  2.8151   4.52101
 2.65000    5.81     3.03   1.09297  2.8149   4.52310
 2.60000    5.80     3.02   1.09305  2.8149   4.52289
 2.55000    5.79     3.02   1.09280  2.8152   4.52520
 2.50000    5.79     3.03   1.09202  2.8150   4.52564
 2.45000    5.77     3.01   1.09192  2.8150   4.52460
 2.40000    5.76     3.02   1.09136  2.8150   4.52585
 2.35000    5.76     3.00   1.09105  2.8148   4.52505
 2.30000    5.74     3.01   1.09098  2.8151   4.52507
 2.25000    5.73     3.02   1.09022  2.8151   4.52821
 2.20000    5.73     3.02   1.08977  2.8153   4.52572
 2.15000    5.71     3.00   1.08904  2.8151   4.52710
 2.10000    5.70     3.00   1.08875  2.8151   4.52772
 2.05000    5.68     3.00   1.08842  2.8151   4.52749
 2.00000    5.67     3.01   1.08789  2.8153   4.52825
 1.95000    5.65     3.01   1.08693  2.8152   4.52729
 1.90000    5.63     3.01   1.08602  2.8152   4.52884
 1.85000    5.61     3.00   1.08564  2.8155   4.52996
 1.80000    5.59     3.00   1.08527  2.8156   4.53092
 1.75000    5.57     2.99   1.08372  2.8157   4.53176
 1.70000    5.56     3.01   1.08325  2.8160   4.53155
 1.65000    5.53     2.99   1.08274  2.8160   4.53390
 1.60000    5.51     2.99   1.08228  2.8162   4.53182
 1.55000    5.50     3.00   1.08161  2.8164   4.53346
 1.50000    5.48     3.01   1.08113  2.8167   4.53373
 1.45000    5.47     3.00   1.08065  2.8171   4.53208
 1.40000    5.45     2.99   1.08035  2.8173   4.53257
 1.35000    5.44     2.99   1.07957  2.8176   4.53301
 1.30000    5.41     3.00   1.07964  2.8178   4.53278
 1.25000    5.40     3.01   1.07957  2.8181   4.53339
 1.20000    5.38     2.99   1.08047  2.8183   4.53354
 1.15000    5.37     3.01   1.08074  2.8186   4.53162
 1.10000    5.35     2.99   1.08130  2.8189   4.53612
 1.05000    5.34     2.99   1.08250  2.8192   4.53690
 1.00000    5.33     2.99   1.08322  2.8194   4.53769
 0.95000    5.32     3.00   1.08448  2.8196   4.53777
 0.90000    5.31     3.01   1.08568  2.8198   4.53688
 0.85000    5.30     3.00   1.08697  2.8200   4.53856
 0.80000    5.29     2.99   1.08851  2.8199   4.53899
 0.75000    5.28     2.99   1.08908  2.8198   4.53839
 0.70000    5.27     2.99   1.09032  2.8200   4.54078
 0.65000    5.26     3.00   1.09119  2.8200   4.54371
 0.60000    5.26     3.01   1.09179  2.8199   4.54125
 0.55000    5.24     2.99   1.09287  2.8198   4.54342
 0.50000    5.24     3.00   1.09339  2.8197   4.54155
 0.45000    5.23     2.99   1.09399  2.8197   4.54394
 0.40000    5.22     3.00   1.09422  2.8195   4.54290
 0.35000    5.22     3.01   1.09483  2.8195   4.54413
 0.30000    5.21     2.99   1.09514  2.8193   4.54337
 0.25000    5.21     2.99   1.09489  2.8194   4.54527
 0.20000    5.19     2.98   1.09569  2.8194   4.54614
 0.15000    5.18     3.01   1.09630  2.8191   4.54472
 0.10000    5.18     2.99   1.09632  2.8192   4.54797
 0.05000    5.17     2.99   1.09644  2.8195   4.54686
-0.00000    5.15     2.98   1.09660  2.8192   4.54758
