 Field[T] Tsmpl[K] Tcntr[K] Signal Mirror[MM] RefSignal
 5.00000    4.86     3.01   1.08299  2.8057   4.64284
 4.95000    4.86     3.02   1.08241  2.8058   4.64007
 4.90000    4.87     3.02   1.08121  2.8056   4.63736
 4.85000    4.88     3.02   1.07994  2.8057   4.63480
 4.80000    4.89     3.01   1.07950  2.8056   4.63438
 4.75000    4.90     3.01   1.07911  2.8055   4.63461
 4.70000    4.91     3.02   1.07818  2.8054   4.63102
 4.65000    4.91     3.01   1.07777  2.8055   4.63191
 4.60000    4.92     3.00   1.07638  2.8056   4.63023
 4.55000    4.92     3.01   1.07597  2.8054   4.62833
 4.50000    4.93     3.01   1.07514  2.8056   4.62800
 4.45000    4.93     3.00   1.07501  2.8054   4.62803
 4.40000    4.94     3.00   1.07389  2.8056   4.62319
 4.35000    4.94     3.01   1.07386  2.8056   4.62199
 4.30000    4.95     3.01   1.07326  2.8057   4.62264
 4.25000    4.95     3.01   1.07215  2.8056   4.62125
 4.20000    4.95     3.01   1.07193  2.8055   4.62128
 4.15000    4.96     3.00   1.07111  2.8054   4.62022
 4.10000    4.97     3.00   1.07090  2.8051   4.61691
 4.05000    4.97     3.02   1.07099  2.8054   4.61731
 4.00000    4.97     3.01   1.07054  2.8053   4.61573
 3.95000    4.97     3.01   1.07008  2.8055   4.61590
 3.90000    4.97     3.00   1.06957  2.8056   4.61434
 3.85000    4.97     3.01   1.06921  2.8055   4.61480
 3.80000    4.97     3.01   1.06926  2.8054   4.61500
 3.75000    4.97     3.00   1.06842  2.8052   4.61238
 3.70000    4.97     3.00   1.06804  2.8053   4.61537
 3.65000    4.97     3.02   1.06809  2.8054   4.61361
 3.60000    4.98     3.00   1.06727  2.8055   4.61326
 3.55000    4.98     3.00   1.06689  2.8054   4.61240
 3.50000    4.99     3.01   1.06608  2.8055   4.61094
 3.45000    4.99     3.00   1.06595  2.8055   4.61077
 3.40000    5.00     3.01   1.06565  2.8056   4.61027
 3.35000    5.00     3.00   1.06522  2.8057   4.61189
 3.30000    5.00     3.01   1.06490  2.8057   4.61098
 3.25000    5.01     3.01   1.06448  2.8056   4.60952
 3.20000    5.01     3.00   1.06432  2.8054   4.61151
 3.15000    5.02     3.01   1.06399  2.8054   4.61276
 3.10000    5.02     3.00   1.06398  2.8056   4.61091
 3.05000    5.03     3.02   1.06401  2.8057   4.61214
 3.00000    5.03     3.00   1.06283  2.8056   4.60795
 2.95000    5.03     3.01   1.06229  2.8056   4.61143
 2.90000    5.03     3.00   1.06201  2.8058   4.60962
 2.85000    5.03     3.02   1.06121  2.8058   4.60934
 2.80000    5.03     3.00   1.06072  2.8060   4.60940
 2.75000    5.03     3.00   1.06099  2.8059   4.60866
 2.70000    5.03     3.02   1.06071  2.8059   4.61079
 2.65000    5.03     3.00   1.06002  2.8061   4.61009
 2.60000    5.03     3.01   1.06012  2.8060   4.61027
 2.55000    5.03     3.00   1.06004  2.8059   4.61024
 2.50000    5.02     3.00   1.05991  2.8060   4.61199
 2.45000    5.02     3.00   1.05958  2.8062   4.61059
 2.40000    5.02     3.02   1.05915  2.8062   4.61095
 2.35000    5.02     3.00   1.05864  2.8064   4.61165
 2.30000    5.01     3.00   1.05854  2.8065   4.61109
 2.25000    5.01     3.00   1.05810  2.8065   4.61148
 2.20000    5.00     3.01   1.05782  2.8066   4.61302
 2.15000    5.00     3.01   1.05779  2.8070   4.61383
 2.10000    5.00     3.02   1.05813  2.8071   4.61323
 2.05000    5.00     3.01   1.05798  2.8070   4.61391
 2.00000    4.99     3.00   1.05780  2.8072   4.61336
 1.95000    4.98     3.01   1.05744  2.8073   4.61217
 1.90000    4.99     3.01   1.05782  2.8074   4.61218
 1.85000    5.00     3.00   1.05837  2.8077   4.61311
 1.80000    5.00     3.01   1.05910  2.8080   4.61377
 1.75000    5.00     3.00   1.05997  2.8080   4.61488
 1.70000    5.00     3.03   1.06064  2.8081   4.61565
 1.65000    4.99     3.01   1.06208  2.8081   4.61445
 1.60000    4.99     3.00   1.06294  2.8084   4.61273
 1.55000    4.98     3.00   1.06425  2.8085   4.61383
 1.50000    4.98     2.99   1.06545  2.8084   4.61594
 1.45000    4.97     3.01   1.06687  2.8083   4.61802
 1.40000    4.96     2.99   1.06797  2.8085   4.61574
 1.35000    4.95     3.00   1.06899  2.8086   4.61615
 1.30000    4.93     3.01   1.07023  2.8086   4.61409
 1.25000    4.92     3.00   1.07105  2.8084   4.61590
 1.20000    4.91     3.00   1.07193  2.8084   4.61677
 1.15000    4.90     3.01   1.07270  2.8083   4.61459
 1.10000    4.88     3.00   1.07403  2.8082   4.61685
 1.05000    4.87     2.99   1.07329  2.8081   4.61476
 1.00000    4.85     3.00   1.07450  2.8080   4.61638
 0.95000    4.84     3.00   1.07477  2.8082   4.61716
 0.90000    4.83     3.00   1.07539  2.8081   4.61728
 0.85000    4.82     3.02   1.07653  2.8080   4.61651
 0.80000    4.82     3.00   1.07658  2.8079   4.61816
 0.75000    4.80     3.00   1.07721  2.8078   4.61684
 0.70000    4.79     3.00   1.07780  2.8077   4.61739
 0.65000    4.78     3.00   1.07779  2.8077   4.61940
 0.60000    4.77     2.99   1.07777  2.8076   4.61855
 0.55000    4.75     3.00   1.07800  2.8076   4.62037
 0.50000    4.73     2.99   1.07829  2.8075   4.61903
 0.45000    4.72     2.99   1.07794  2.8073   4.61785
 0.40000    4.71     3.00   1.07852  2.8071   4.62055
 0.35000    4.70     2.99   1.07850  2.8071   4.62051
 0.30000    4.69     2.99   1.07858  2.8072   4.62195
 0.25000    4.68     3.00   1.07881  2.8071   4.62019
 0.20000    4.67     3.00   1.07934  2.8068   4.62014
 0.15000    4.67     2.99   1.07866  2.8067   4.62094
 0.10000    4.66     3.01   1.07939  2.8067   4.62190
 0.05000    4.66     2.99   1.07956  2.8065   4.62095
-0.00000    4.66     2.99   1.07922  2.8065   4.62026
