 Field[T] Tsmpl[K] Tcntr[K] Signal Mirror[MM] RefSignal
 5.00000    5.05     3.05   1.60186  3.3487   4.98378
 4.95000    5.06     3.06   1.60147  3.3489   4.98392
 4.90000    5.07     3.06   1.60191  3.3489   4.98385
 4.85000    5.07     3.07   1.60212  3.3488   4.98267
 4.80000    5.08     3.08   1.60209  3.3487   4.98350
 4.75000    5.10     3.08   1.60240  3.3489   4.98480
 4.70000    5.11     3.08   1.60273  3.3489   4.98279
 4.65000    5.12     3.09   1.60271  3.3488   4.98327
 4.60000    5.14     3.09   1.60282  3.3489   4.98419
 4.55000    5.16     3.09   1.60263  3.3490   4.98294
 4.50000    5.17     3.09   1.60335  3.3488   4.98431
 4.45000    5.19     3.09   1.60249  3.3490   4.98066
 4.40000    5.21     3.10   1.60315  3.3488   4.98069
 4.35000    5.24     3.10   1.60308  3.3487   4.98226
 4.30000    5.25     3.10   1.60257  3.3490   4.98055
 4.25000    5.27     3.11   1.60254  3.3488   4.97839
 4.20000    5.29     3.10   1.60228  3.3488   4.98174
 4.15000    5.31     3.09   1.60172  3.3487   4.98027
 4.10000    5.33     3.09   1.60243  3.3487   4.97771
 4.05000    5.35     3.09   1.60227  3.3487   4.97726
 4.00000    5.36     3.09   1.60206  3.3489   4.97888
 3.95000    5.38     3.08   1.60224  3.3488   4.97723
 3.90000    5.39     3.09   1.60201  3.3488   4.97797
 3.85000    5.41     3.08   1.60220  3.3489   4.97833
 3.80000    5.43     3.07   1.60209  3.3489   4.97862
 3.75000    5.43     3.07   1.60237  3.3490   4.97760
 3.70000    5.44     3.07   1.60200  3.3489   4.97478
 3.65000    5.45     3.08   1.60255  3.3488   4.97680
 3.60000    5.47     3.07   1.60220  3.3488   4.97889
 3.55000    5.48     3.07   1.60225  3.3487   4.97762
 3.50000    5.49     3.06   1.60192  3.3488   4.97645
 3.45000    5.49     3.06   1.60150  3.3487   4.97580
 3.40000    5.50     3.07   1.60155  3.3486   4.97721
 3.35000    5.52     3.06   1.60132  3.3488   4.97653
 3.30000    5.52     3.05   1.60118  3.3488   4.97658
 3.25000    5.53     3.04   1.60115  3.3486   4.97616
 3.20000    5.53     3.05   1.60069  3.3489   4.97714
 3.15000    5.54     3.04   1.60065  3.3490   4.97673
 3.10000    5.54     3.03   1.60076  3.3490   4.97577
 3.05000    5.54     3.03   1.60026  3.3490   4.97702
 3.00000    5.55     3.04   1.60018  3.3490   4.97703
 2.95000    5.55     3.03   1.59961  3.3489   4.97664
 2.90000    5.55     3.02   1.59933  3.3491   4.97957
 2.85000    5.55     3.02   1.59901  3.3490   4.97544
 2.80000    5.55     3.02   1.59836  3.3492   4.97644
 2.75000    5.55     3.02   1.59808  3.3492   4.97701
 2.70000    5.54     3.03   1.59829  3.3490   4.97590
 2.65000    5.54     3.02   1.59808  3.3491   4.97683
 2.60000    5.54     3.02   1.59761  3.3492   4.97604
 2.55000    5.54     3.02   1.59689  3.3492   4.97646
 2.50000    5.54     3.02   1.59658  3.3493   4.97439
 2.45000    5.54     3.02   1.59658  3.3492   4.97456
 2.40000    5.53     3.01   1.59631  3.3494   4.97697
 2.35000    5.53     3.01   1.59569  3.3492   4.97666
 2.30000    5.53     3.02   1.59576  3.3493   4.97705
 2.25000    5.52     3.01   1.59547  3.3494   4.97795
 2.20000    5.51     3.00   1.59510  3.3496   4.97653
 2.15000    5.50     3.00   1.59464  3.3495   4.97817
 2.10000    5.49     3.02   1.59385  3.3498   4.97747
 2.05000    5.48     3.00   1.59404  3.3500   4.97627
 2.00000    5.47     3.01   1.59356  3.3499   4.97757
 1.95000    5.45     2.99   1.59360  3.3501   4.97773
 1.90000    5.44     2.99   1.59369  3.3502   4.97945
 1.85000    5.43     3.00   1.59366  3.3503   4.97676
 1.80000    5.42     3.00   1.59447  3.3503   4.97934
 1.75000    5.41     3.01   1.59476  3.3505   4.97753
 1.70000    5.41     3.01   1.59625  3.3506   4.97765
 1.65000    5.41     2.99   1.59754  3.3506   4.97909
 1.60000    5.40     3.00   1.59852  3.3507   4.97787
 1.55000    5.39     3.00   1.59972  3.3509   4.97607
 1.50000    5.39     3.01   1.60091  3.3509   4.97710
 1.45000    5.39     3.01   1.60181  3.3508   4.97751
 1.40000    5.39     2.99   1.60268  3.3510   4.97862
 1.35000    5.38     3.00   1.60417  3.3510   4.97759
 1.30000    5.38     2.99   1.60551  3.3510   4.97945
 1.25000    5.36     3.01   1.60677  3.3508   4.97726
 1.20000    5.36     3.01   1.60775  3.3509   4.97719
 1.15000    5.35     3.00   1.60844  3.3508   4.97751
 1.10000    5.34     2.99   1.60943  3.3506   4.97747
 1.05000    5.32     2.99   1.60982  3.3506   4.97741
 1.00000    5.30     3.00   1.61079  3.3504   4.97688
 0.95000    5.29     3.00   1.61100  3.3502   4.97672
 0.90000    5.29     3.00   1.61159  3.3503   4.97646
 0.85000    5.28     2.99   1.61231  3.3504   4.97775
 0.80000    5.28     2.99   1.61292  3.3502   4.97769
 0.75000    5.27     2.99   1.61388  3.3502   4.97632
 0.70000    5.26     3.00   1.61355  3.3501   4.97718
 0.65000    5.25     3.00   1.61373  3.3500   4.97576
 0.60000    5.25     2.99   1.61392  3.3501   4.97546
 0.55000    5.24     2.99   1.61455  3.3500   4.97805
 0.50000    5.23     2.99   1.61478  3.3497   4.97663
 0.45000    5.22     3.01   1.61475  3.3498   4.97799
 0.40000    5.22     2.99   1.61556  3.3498   4.97765
 0.35000    5.20     2.99   1.61497  3.3498   4.97721
 0.30000    5.19     2.99   1.61484  3.3497   4.97527
 0.25000    5.18     2.99   1.61468  3.3496   4.97486
 0.20000    5.16     3.00   1.61488  3.3494   4.97501
 0.15000    5.16     2.99   1.61508  3.3494   4.97562
 0.10000    5.14     2.98   1.61452  3.3493   4.97411
 0.05000    5.12     2.97   1.61419  3.3493   4.97376
-0.00000    5.10     2.98   1.61396  3.3493   4.97526
