 Field[T] Tsmpl[K] Tcntr[K] Signal
 0.00000    1.77     1.80   4.85150
 0.05000    1.77     1.80   4.85440
 0.10000    1.77     1.80   4.85390
 0.15000    1.77     1.80   4.84210
 0.20000    1.77     1.80   4.85390
 0.25000    1.77     1.80   4.84610
 0.30000    1.77     1.80   4.85310
 0.35000    1.77     1.80   4.84560
 0.40000    1.77     1.80   4.85380
 0.45000    1.77     1.80   4.83180
 0.50000    1.77     1.80   4.82960
 0.55000    1.77     1.80   4.82470
 0.60000    1.77     1.80   4.82370
 0.65000    1.77     1.80   4.82400
 0.70000    1.77     1.80   4.81650
 0.75000    1.77     1.80   4.80420
 0.80000    1.77     1.80   4.80590
 0.85000    1.77     1.80   4.79950
 0.90000    1.77     1.80   4.79590
 0.95000    1.77     1.80   4.79830
 1.00000    1.77     1.80   4.79400
 1.05000    1.77     1.80   4.79450
 1.10000    1.77     1.80   4.80190
 1.15000    1.77     1.80   4.80680
 1.20000    1.77     1.80   4.82420
 1.25000    1.77     1.80   4.83180
 1.30000    1.78     1.80   4.83530
 1.35000    1.78     1.80   4.83520
 1.40000    1.78     1.80   4.83470
 1.45000    1.78     1.80   4.83540
 1.50000    1.78     1.80   4.83940
 1.55000    1.78     1.80   4.84890
 1.60000    1.78     1.80   4.83860
 1.65000    1.78     1.80   4.83610
 1.70000    1.78     1.80   4.81560
 1.75000    1.78     1.80   4.81080
 1.80000    1.78     1.80   4.81700
 1.85000    1.78     1.80   4.82670
 1.90000    1.78     1.80   4.82330
 1.95000    1.78     1.80   4.80280
 2.00000    1.78     1.81   4.77950
 2.05000    1.79     1.81   4.75520
 2.10000    1.79     1.81   4.73980
 2.15000    1.79     1.81   4.70650
 2.20000    1.79     1.81   4.68580
 2.25000    1.79     1.81   4.71020
 2.30000    1.79     1.81   4.73380
 2.35000    1.79     1.81   4.74810
 2.40000    1.79     1.81   4.76960
 2.45000    1.79     1.81   4.74830
 2.50000    1.80     1.81   4.68260
 2.55000    1.80     1.81   4.69710
 2.60000    1.80     1.81   4.66940
 2.65000    1.80     1.82   4.59900
 2.70000    1.80     1.82   4.60660
 2.75000    1.80     1.82   4.61570
 2.80000    1.80     1.82   4.64170
 2.85000    1.80     1.82   4.59490
 2.90000    1.80     1.82   4.57310
 2.95000    1.80     1.82   4.55680
 3.00000    1.80     1.82   4.56380
 3.05000    1.81     1.82   4.52260
 3.10000    1.81     1.82   4.46140
 3.15000    1.81     1.82   4.38000
 3.20000    1.81     1.83   4.29160
 3.25000    1.81     1.83   4.20360
 3.30000    1.81     1.83   4.13350
 3.35000    1.81     1.83   4.05250
 3.40000    1.81     1.83   3.94740
 3.45000    1.81     1.83   3.82650
 3.50000    1.81     1.83   3.69970
 3.55000    1.81     1.83   3.57070
 3.60000    1.81     1.83   3.46980
 3.65000    1.81     1.83   3.41010
 3.70000    1.82     1.83   3.39330
 3.75000    1.82     1.84   3.43440
 3.80000    1.82     1.84   3.50580
 3.85000    1.82     1.84   3.62240
 3.90000    1.82     1.84   3.76510
 3.95000    1.82     1.84   3.92700
 4.00000    1.82     1.84   4.10220
 4.05000    1.82     1.84   4.27870
 4.10000    1.82     1.84   4.45170
 4.15000    1.82     1.84   4.61620
 4.20000    1.82     1.84   4.75220
 4.25000    1.82     1.84   4.87910
 4.30000    1.83     1.85   4.97390
 4.35000    1.83     1.85   5.06060
 4.40000    1.83     1.85   5.11470
 4.45000    1.83     1.85   5.15120
 4.50000    1.83     1.85   5.17390
 4.55000    1.83     1.85   5.19580
 4.60000    1.83     1.85   5.20390
 4.65000    1.83     1.85   5.19610
 4.70000    1.83     1.85   5.19990
 4.75000    1.83     1.85   5.19720
 4.80000    1.83     1.85   5.20170
 4.85000    1.83     1.85   5.20230
 4.90000    1.83     1.85   5.21300
 4.95000    1.83     1.85   5.21350
 5.00000    1.83     1.86   5.22320
 5.05000    1.83     1.86   5.21330
 5.10000    1.83     1.86   5.19670
 5.15000    1.84     1.86   5.16700
 5.20000    1.84     1.86   5.14130
 5.25000    1.84     1.86   5.11550
 5.30000    1.84     1.86   5.09840
 5.35000    1.84     1.86   5.09540
 5.40000    1.84     1.86   5.10120
 5.45000    1.84     1.86   5.09250
 5.50000    1.84     1.86   5.07040
 5.55000    1.84     1.86   5.03870
 5.60000    1.84     1.86   5.02100
 5.65000    1.84     1.86   4.99160
 5.70000    1.84     1.87   4.98300
 5.75000    1.84     1.87   4.97210
 5.80000    1.84     1.87   4.96920
 5.85000    1.84     1.87   4.96600
 5.90000    1.84     1.87   4.95700
 5.95000    1.84     1.87   4.96920
 6.00000    1.84     1.87   4.97420
 6.05000    1.84     1.87   4.97060
 6.10000    1.84     1.87   4.93560
 6.15000    1.84     1.87   4.90040
 6.20000    1.84     1.87   4.88010
 6.25000    1.84     1.87   4.88250
 6.30000    1.84     1.87   4.87460
 6.35000    1.84     1.87   4.87750
 6.40000    1.84     1.87   4.87770
 6.45000    1.85     1.87   4.86840
 6.50000    1.85     1.87   4.85900
 6.55000    1.85     1.87   4.86320
 6.60000    1.85     1.87   4.85760
 6.65000    1.85     1.87   4.86490
 6.70000    1.85     1.87   4.86770
 6.75000    1.85     1.87   4.87040
 6.80000    1.85     1.87   4.87740
 6.85000    1.85     1.87   4.87900
 6.90000    1.85     1.88   4.88690
 6.95000    1.85     1.88   4.90010
 7.00000    1.85     1.88   4.91490
