 Field[T] Tsmpl[K] Tcntr[K] Signal
 0.00000    1.78     1.80   6.63110
 0.05000    1.78     1.80   6.65480
 0.10000    1.78     1.80   6.68920
 0.15000    1.78     1.80   6.67330
 0.20000    1.78     1.80   6.72880
 0.25000    1.78     1.80   6.77070
 0.30000    1.78     1.80   6.81830
 0.35000    1.78     1.80   6.86420
 0.40000    1.78     1.80   6.88740
 0.45000    1.78     1.80   6.91840
 0.50000    1.78     1.80   6.95160
 0.55000    1.78     1.80   6.96500
 0.60000    1.78     1.80   6.99350
 0.65000    1.78     1.80   7.01330
 0.70000    1.78     1.80   7.02580
 0.75000    1.78     1.80   7.04770
 0.80000    1.78     1.80   7.07230
 0.85000    1.78     1.80   7.07580
 0.90000    1.78     1.80   7.08630
 0.95000    1.78     1.80   7.09580
 1.00000    1.78     1.80   7.09950
 1.05000    1.78     1.80   7.12090
 1.10000    1.78     1.80   7.12540
 1.15000    1.78     1.80   7.12940
 1.20000    1.78     1.80   7.14560
 1.25000    1.78     1.80   7.15140
 1.30000    1.78     1.80   7.15200
 1.35000    1.78     1.80   7.15240
 1.40000    1.78     1.80   7.16450
 1.45000    1.79     1.80   7.17520
 1.50000    1.79     1.81   7.18000
 1.55000    1.79     1.81   7.18760
 1.60000    1.79     1.81   7.20290
 1.65000    1.79     1.81   7.20900
 1.70000    1.79     1.81   7.20040
 1.75000    1.79     1.81   7.20840
 1.80000    1.79     1.81   7.20060
 1.85000    1.79     1.81   7.19740
 1.90000    1.79     1.81   7.18310
 1.95000    1.79     1.81   7.17810
 2.00000    1.79     1.81   7.16210
 2.05000    1.79     1.81   7.16410
 2.10000    1.79     1.81   7.16230
 2.15000    1.79     1.81   7.17290
 2.20000    1.80     1.81   7.18210
 2.25000    1.80     1.81   7.18490
 2.30000    1.80     1.81   7.18910
 2.35000    1.80     1.81   7.17730
 2.40000    1.80     1.81   7.16920
 2.45000    1.80     1.82   7.17910
 2.50000    1.80     1.82   7.17880
 2.55000    1.80     1.82   7.18900
 2.60000    1.80     1.82   7.20100
 2.65000    1.80     1.82   7.21310
 2.70000    1.80     1.82   7.21190
 2.75000    1.80     1.82   7.22760
 2.80000    1.80     1.82   7.22930
 2.85000    1.80     1.82   7.23650
 2.90000    1.80     1.82   7.25060
 2.95000    1.80     1.82   7.25460
 3.00000    1.81     1.82   7.25530
 3.05000    1.81     1.82   7.24940
 3.10000    1.81     1.82   7.23950
 3.15000    1.81     1.82   7.23400
 3.20000    1.81     1.82   7.22880
 3.25000    1.81     1.83   7.21120
 3.30000    1.81     1.83   7.22350
 3.35000    1.81     1.83   7.22340
 3.40000    1.81     1.83   7.22690
 3.45000    1.81     1.83   7.22320
 3.50000    1.81     1.83   7.23000
 3.55000    1.81     1.83   7.26440
 3.60000    1.82     1.83   7.27840
 3.65000    1.82     1.83   7.25950
 3.70000    1.82     1.83   7.23930
 3.75000    1.82     1.83   7.19390
 3.80000    1.82     1.83   7.14170
 3.85000    1.82     1.83   7.19550
 3.90000    1.82     1.84   7.18390
 3.95000    1.82     1.84   7.12640
 4.00000    1.82     1.84   7.13240
 4.05000    1.82     1.84   7.19440
 4.10000    1.82     1.84   7.17530
 4.15000    1.82     1.84   7.15140
 4.20000    1.82     1.84   7.14420
 4.25000    1.82     1.84   7.12710
 4.30000    1.82     1.84   7.08700
 4.35000    1.82     1.84   7.07490
 4.40000    1.82     1.84   7.06040
 4.45000    1.82     1.84   7.05600
 4.50000    1.82     1.84   7.03660
 4.55000    1.82     1.84   7.00250
 4.60000    1.83     1.84   6.95760
 4.65000    1.83     1.84   6.89130
 4.70000    1.83     1.84   6.80580
 4.75000    1.83     1.84   6.69310
 4.80000    1.83     1.85   6.56460
 4.85000    1.83     1.85   6.41800
 4.90000    1.83     1.85   6.27610
 4.95000    1.83     1.85   6.14380
 5.00000    1.83     1.85   6.04820
 5.05000    1.83     1.85   5.97620
 5.10000    1.83     1.85   5.93150
 5.15000    1.83     1.85   5.93110
 5.20000    1.83     1.85   5.95440
 5.25000    1.83     1.85   5.99440
 5.30000    1.83     1.85   6.06090
 5.35000    1.83     1.85   6.13690
 5.40000    1.83     1.85   6.21010
 5.45000    1.83     1.85   6.30670
 5.50000    1.84     1.86   6.39550
 5.55000    1.84     1.86   6.48200
 5.60000    1.84     1.86   6.55980
 5.65000    1.84     1.86   6.64240
 5.70000    1.84     1.86   6.71550
 5.75000    1.84     1.86   6.79340
 5.80000    1.84     1.86   6.85350
 5.85000    1.84     1.86   6.89800
 5.90000    1.84     1.86   6.94290
 5.95000    1.84     1.86   6.99130
 6.00000    1.84     1.86   7.02480
 6.05000    1.84     1.86   7.05670
 6.10000    1.84     1.86   7.08280
 6.15000    1.84     1.86   7.09560
 6.20000    1.84     1.86   7.11550
 6.25000    1.84     1.87   7.12030
 6.30000    1.84     1.87   7.13730
 6.35000    1.84     1.87   7.14750
 6.40000    1.84     1.87   7.14720
 6.45000    1.84     1.87   7.15230
 6.50000    1.84     1.87   7.15440
 6.55000    1.84     1.87   7.16160
 6.60000    1.84     1.87   7.15470
 6.65000    1.85     1.87   7.15290
 6.70000    1.85     1.87   7.15010
 6.75000    1.85     1.87   7.16150
 6.80000    1.85     1.87   7.15460
 6.85000    1.85     1.87   7.17470
 6.90000    1.85     1.87   7.19430
 6.95000    1.85     1.87   7.21570
 7.00000    1.85     1.87   7.22970
