 Field[T] Tsmpl[K] Tcntr[K] Signal
 7.00000    1.85     1.88   4.98610
 6.95000    1.85     1.88   4.82410
 6.90000    1.85     1.88   4.68440
 6.85000    1.85     1.88   4.55000
 6.80000    1.85     1.88   4.40020
 6.75000    1.85     1.88   4.25080
 6.70000    1.85     1.88   4.13390
 6.65000    1.85     1.88   4.03530
 6.60000    1.85     1.88   3.93220
 6.55000    1.85     1.88   3.82880
 6.50000    1.85     1.88   3.72850
 6.45000    1.85     1.88   3.65520
 6.40000    1.85     1.88   3.57910
 6.35000    1.85     1.88   3.49950
 6.30000    1.85     1.87   3.42310
 6.25000    1.85     1.87   3.37090
 6.20000    1.85     1.87   3.30800
 6.15000    1.85     1.87   3.27660
 6.10000    1.85     1.87   3.25160
 6.05000    1.85     1.87   3.26120
 6.00000    1.85     1.87   3.29410
 5.95000    1.85     1.87   3.34490
 5.90000    1.85     1.87   3.42350
 5.85000    1.85     1.87   3.53920
 5.80000    1.85     1.87   3.66210
 5.75000    1.85     1.87   3.83220
 5.70000    1.85     1.87   4.02810
 5.65000    1.85     1.87   4.23820
 5.60000    1.85     1.87   4.46610
 5.55000    1.85     1.87   4.66660
 5.50000    1.85     1.87   4.85760
 5.45000    1.85     1.87   5.03060
 5.40000    1.85     1.87   5.16760
 5.35000    1.85     1.87   5.28360
 5.30000    1.85     1.87   5.37260
 5.25000    1.85     1.87   5.47600
 5.20000    1.85     1.87   5.57190
 5.15000    1.85     1.87   5.63060
 5.10000    1.85     1.87   5.70710
 5.05000    1.85     1.87   5.76530
 5.00000    1.85     1.87   5.80440
 4.95000    1.85     1.87   5.83250
 4.90000    1.85     1.87   5.86170
 4.85000    1.85     1.87   5.87820
 4.80000    1.85     1.87   5.89510
 4.75000    1.84     1.87   5.91150
 4.70000    1.84     1.87   5.91060
 4.65000    1.84     1.87   5.92580
 4.60000    1.84     1.87   5.91910
 4.55000    1.84     1.87   5.94280
 4.50000    1.84     1.87   5.94830
 4.45000    1.84     1.86   5.96790
 4.40000    1.84     1.86   5.95950
 4.35000    1.84     1.86   5.96290
 4.30000    1.84     1.86   5.98240
 4.25000    1.84     1.86   5.99380
 4.20000    1.84     1.86   5.99330
 4.15000    1.84     1.86   6.01170
 4.10000    1.84     1.86   6.01070
 4.05000    1.84     1.86   6.00840
 4.00000    1.84     1.86   6.00360
 3.95000    1.84     1.86   5.99260
 3.90000    1.84     1.86   6.00340
 3.85000    1.84     1.86   6.00700
 3.80000    1.84     1.86   6.01210
 3.75000    1.84     1.86   6.01810
 3.70000    1.84     1.86   6.01790
 3.65000    1.84     1.86   6.02940
 3.60000    1.84     1.86   6.02420
 3.55000    1.84     1.86   6.03090
 3.50000    1.84     1.86   6.02500
 3.45000    1.84     1.86   6.02390
 3.40000    1.84     1.86   6.03840
 3.35000    1.84     1.85   6.02810
 3.30000    1.84     1.85   6.03550
 3.25000    1.84     1.85   6.04750
 3.20000    1.84     1.85   6.03340
 3.15000    1.84     1.85   6.04640
 3.10000    1.84     1.85   6.03300
 3.05000    1.84     1.85   6.05130
 3.00000    1.84     1.85   6.05890
 2.95000    1.83     1.85   6.05580
 2.90000    1.83     1.85   6.06400
 2.85000    1.83     1.85   6.05320
 2.80000    1.83     1.85   6.07920
 2.75000    1.83     1.85   6.07300
 2.70000    1.83     1.85   6.08140
 2.65000    1.83     1.85   6.07000
 2.60000    1.83     1.85   6.08010
 2.55000    1.83     1.85   6.07380
 2.50000    1.83     1.85   6.06550
 2.45000    1.83     1.85   6.06830
 2.40000    1.83     1.85   6.07410
 2.35000    1.83     1.85   6.07240
 2.30000    1.83     1.85   6.08620
 2.25000    1.83     1.84   6.08290
 2.20000    1.83     1.84   6.07360
 2.15000    1.83     1.84   6.06880
 2.10000    1.83     1.84   6.07460
 2.05000    1.82     1.84   6.09390
 2.00000    1.82     1.84   6.07280
 1.95000    1.82     1.84   6.07150
 1.90000    1.82     1.84   6.08730
 1.85000    1.82     1.84   6.08120
 1.80000    1.82     1.84   6.08440
 1.75000    1.82     1.84   6.08840
 1.70000    1.82     1.84   6.09110
 1.65000    1.82     1.84   6.05590
 1.60000    1.82     1.84   6.07430
 1.55000    1.82     1.84   6.06530
 1.50000    1.82     1.84   6.07760
 1.45000    1.82     1.84   6.07230
 1.40000    1.82     1.84   6.06510
 1.35000    1.82     1.84   6.08030
 1.30000    1.82     1.84   6.07480
 1.25000    1.82     1.84   6.06780
 1.20000    1.82     1.84   6.05890
 1.15000    1.82     1.84   6.07450
 1.10000    1.81     1.84   6.07250
 1.05000    1.81     1.83   6.05840
 1.00000    1.81     1.83   6.09140
 0.95000    1.81     1.83   6.10050
 0.90000    1.81     1.83   6.08050
 0.85000    1.81     1.83   6.08260
 0.80000    1.81     1.83   6.08690
 0.75000    1.81     1.83   6.05510
 0.70000    1.81     1.83   6.07900
 0.65000    1.81     1.83   6.08760
 0.60000    1.81     1.83   6.07770
 0.55000    1.81     1.83   6.06140
 0.50000    1.81     1.83   6.08840
 0.45000    1.81     1.83   6.11600
 0.40000    1.81     1.83   6.08850
 0.35000    1.81     1.83   6.08700
 0.30000    1.81     1.83   6.08680
 0.25000    1.81     1.83   6.07120
 0.20000    1.81     1.83   6.07570
 0.15000    1.81     1.83   6.08430
 0.10000    1.81     1.83   6.07710
 0.05000    1.81     1.83   6.08210
-0.00000    1.81     1.83   6.07470
