 Field[T] Tsmpl[K] Tcntr[K] Signal   Mirror[MM]
 0.00000    4.96     3.01   1.96519  1.3708
 0.05000    4.95     3.01   1.96467  1.3708
 0.10000    4.95     2.99   1.96184  1.3721
 0.15000    4.95     3.00   1.96195  1.3697
 0.20000    4.95     3.01   1.96299  1.3694
 0.25000    4.95     3.00   1.95677  1.3699
 0.30000    4.94     3.00   1.95682  1.3681
 0.35000    4.93     3.00   1.95724  1.3671
 0.40000    4.93     2.99   1.95740  1.3650
 0.45000    4.91     3.01   1.95700  1.3648
 0.50000    4.90     3.00   1.95998  1.3637
 0.55000    4.89     2.99   1.96059  1.3631
 0.60000    4.88     3.01   1.96623  1.3612
 0.65000    4.88     3.00   1.96641  1.3615
 0.70000    4.87     2.99   1.96921  1.3615
 0.75000    4.86     3.01   1.97423  1.3604
 0.80000    4.85     2.99   1.97656  1.3615
 0.85000    4.84     2.99   1.97525  1.3634
 0.90000    4.84     3.01   1.97943  1.3624
 0.95000    4.83     2.99   1.98119  1.3623
 1.00000    4.82     3.00   1.98237  1.3627
 1.05000    4.82     2.99   1.98214  1.3637
 1.10000    4.82     2.99   1.98407  1.3633
 1.15000    4.81     2.99   1.98719  1.3638
 1.20000    4.82     3.00   1.98695  1.3642
 1.25000    4.82     2.99   1.98967  1.3639
 1.30000    4.82     2.99   1.98903  1.3641
 1.35000    4.82     3.00   1.99054  1.3643
 1.40000    4.82     2.99   1.98901  1.3649
 1.45000    4.83     3.00   1.98968  1.3650
 1.50000    4.83     2.99   1.98863  1.3656
 1.55000    4.84     2.99   1.98972  1.3657
 1.60000    4.85     2.99   1.98945  1.3664
 1.65000    4.85     2.99   1.98721  1.3669
 1.70000    4.86     3.01   1.98737  1.3668
 1.75000    4.86     3.00   1.98701  1.3671
 1.80000    4.86     3.00   1.98848  1.3663
 1.85000    4.86     3.00   1.98968  1.3670
 1.90000    4.86     3.00   1.98801  1.3673
 1.95000    4.85     3.00   1.98695  1.3680
 2.00000    4.85     3.00   1.98644  1.3687
 2.00000    4.85     2.99   1.98768  1.3676
 1.95000    4.85     3.00   1.98873  1.3679
 1.90000    4.85     2.99   1.98722  1.3678
 1.85000    4.85     3.01   1.98692  1.3676
 1.80000    4.86     3.00   1.99040  1.3665
 1.75000    4.88     2.99   1.98811  1.3675
 1.70000    4.90     3.01   1.98772  1.3669
 1.65000    4.92     3.01   1.98846  1.3672
 1.60000    4.94     2.99   1.98764  1.3671
 1.55000    4.95     3.01   1.98828  1.3667
 1.50000    4.97     2.99   1.98787  1.3656
 1.45000    4.97     3.01   1.98764  1.3658
 1.40000    4.98     3.00   1.98737  1.3655
 1.35000    4.98     3.00   1.98772  1.3661
 1.30000    4.98     3.00   1.98760  1.3647
 1.25000    4.97     3.00   1.98780  1.3643
 1.20000    4.97     2.99   1.98617  1.3641
 1.15000    4.96     3.01   1.98240  1.3643
 1.10000    4.95     3.00   1.98180  1.3639
 1.05000    4.95     2.99   1.98254  1.3640
 1.00000    4.95     3.00   1.98075  1.3627
 0.95000    4.95     3.00   1.98091  1.3621
 0.90000    4.95     3.01   1.97629  1.3622
 0.85000    4.95     2.99   1.97515  1.3620
 0.80000    4.95     3.02   1.97169  1.3631
 0.75000    4.95     3.00   1.96855  1.3625
 0.70000    4.95     3.00   1.96744  1.3624
 0.65000    4.95     3.00   1.96318  1.3627
 0.60000    4.96     3.00   1.96057  1.3632
 0.55000    4.96     3.00   1.95930  1.3628
 0.50000    4.96     3.00   1.95529  1.3640
 0.45000    4.97     3.00   1.95481  1.3647
 0.40000    4.97     3.00   1.95251  1.3657
 0.35000    4.97     2.99   1.94926  1.3680
 0.30000    4.96     3.00   1.95077  1.3688
 0.25000    4.95     3.00   1.94918  1.3703
 0.20000    4.94     3.00   1.95061  1.3716
 0.15000    4.91     3.00   1.95049  1.3721
 0.10000    4.90     2.99   1.94980  1.3724
 0.05000    4.88     3.00   1.95330  1.3720
-0.00000    4.86     2.99   1.95076  1.3724
