 Field[T] Tsmpl[K] Tcntr[K] Signal Mirror[MM] RefSignal
 4.00000    4.55     3.02   1.75770  2.4638   3.59635
 3.95000    4.56     3.03   1.75734  2.4636   3.59366
 3.90000    4.57     3.03   1.75762  2.4638   3.59581
 3.85000    4.59     3.04   1.75771  2.4635   3.59238
 3.80000    4.60     3.04   1.75780  2.4634   3.59326
 3.75000    4.61     3.03   1.75646  2.4633   3.59417
 3.70000    4.61     3.05   1.75766  2.4632   3.59400
 3.65000    4.63     3.04   1.75765  2.4633   3.59358
 3.60000    4.63     3.05   1.75716  2.4633   3.59032
 3.55000    4.64     3.04   1.75738  2.4632   3.58996
 3.50000    4.64     3.07   1.75690  2.4632   3.58865
 3.45000    4.66     3.04   1.75648  2.4631   3.59031
 3.40000    4.66     3.04   1.75720  2.4630   3.58954
 3.35000    4.67     3.07   1.75717  2.4630   3.59193
 3.30000    4.68     3.06   1.75732  2.4629   3.59052
 3.25000    4.70     3.06   1.75632  2.4630   3.59050
 3.20000    4.71     3.05   1.75654  2.4628   3.59022
 3.15000    4.71     3.06   1.75658  2.4628   3.59006
 3.10000    4.73     3.06   1.75674  2.4628   3.58925
 3.05000    4.74     3.06   1.75710  2.4627   3.59045
 3.00000    4.74     3.05   1.75736  2.4628   3.58955
 2.95000    4.76     3.07   1.75796  2.4625   3.58801
 2.90000    4.77     3.05   1.75781  2.4623   3.59281
 2.85000    4.77     3.05   1.75766  2.4625   3.59155
 2.80000    4.78     3.06   1.75729  2.4624   3.58938
 2.75000    4.79     3.07   1.75752  2.4624   3.59043
 2.70000    4.82     3.05   1.75785  2.4625   3.58988
 2.65000    4.83     3.05   1.75778  2.4625   3.58957
 2.60000    4.83     3.07   1.75731  2.4624   3.59054
 2.55000    4.84     3.05   1.75705  2.4624   3.58961
 2.50000    4.85     3.05   1.75654  2.4622   3.59084
 2.45000    4.86     3.04   1.75748  2.4620   3.59061
 2.40000    4.86     3.05   1.75664  2.4620   3.58966
 2.35000    4.86     3.04   1.75670  2.4620   3.59013
 2.30000    4.87     3.05   1.75610  2.4619   3.59052
 2.25000    4.87     3.04   1.75608  2.4617   3.58966
 2.20000    4.88     3.04   1.75591  2.4616   3.59057
 2.15000    4.87     3.05   1.75561  2.4619   3.59094
 2.10000    4.87     3.03   1.75544  2.4615   3.59129
 2.05000    4.87     3.02   1.75463  2.4614   3.59052
 2.00000    4.88     3.03   1.75448  2.4614   3.59141
 1.95000    4.87     3.02   1.75344  2.4613   3.59066
 1.90000    4.86     3.01   1.75299  2.4613   3.59433
 1.85000    4.86     3.03   1.75204  2.4612   3.59226
 1.80000    4.85     3.01   1.75084  2.4611   3.59341
 1.75000    4.84     3.02   1.74951  2.4609   3.59241
 1.70000    4.83     3.02   1.74847  2.4606   3.59440
 1.65000    4.82     3.01   1.74657  2.4606   3.59380
 1.60000    4.81     3.01   1.74462  2.4604   3.59334
 1.55000    4.81     3.02   1.74255  2.4601   3.59358
 1.50000    4.81     3.01   1.73834  2.4596   3.59254
 1.45000    4.81     3.00   1.73322  2.4595   3.59596
 1.40000    4.79     3.02   1.72564  2.4598   3.59414
 1.35000    4.78     3.01   1.71777  2.4598   3.59480
 1.30000    4.77     3.00   1.70853  2.4604   3.59496
 1.25000    4.77     3.00   1.70307  2.4612   3.59537
 1.20000    4.76     3.01   1.70052  2.4620   3.59559
 1.15000    4.74     3.01   1.70145  2.4632   3.59560
 1.10000    4.74     3.02   1.70557  2.4638   3.59468
 1.05000    4.74     3.00   1.70768  2.4644   3.59636
 1.00000    4.73     2.99   1.71218  2.4649   3.59650
 0.95000    4.72     2.99   1.71468  2.4651   3.59517
 0.90000    4.71     2.99   1.71784  2.4653   3.59595
 0.85000    4.70     3.01   1.72064  2.4655   3.59672
 0.80000    4.70     2.98   1.72321  2.4655   3.59652
 0.75000    4.69     2.99   1.72452  2.4657   3.59559
 0.70000    4.67     3.00   1.72726  2.4656   3.59830
 0.65000    4.66     2.99   1.72892  2.4657   3.59750
 0.60000    4.64     2.99   1.72999  2.4658   3.59697
 0.55000    4.63     3.01   1.73124  2.4658   3.59730
 0.50000    4.61     3.00   1.73236  2.4659   3.59933
 0.45000    4.60     2.99   1.73225  2.4660   3.59728
 0.40000    4.60     2.99   1.73537  2.4660   3.59950
 0.35000    4.60     2.99   1.73598  2.4661   3.60086
 0.30000    4.59     3.01   1.73694  2.4659   3.59888
 0.25000    4.57     3.00   1.73667  2.4660   3.59994
 0.20000    4.55     3.00   1.73747  2.4659   3.59909
 0.15000    4.53     3.00   1.73854  2.4658   3.60055
 0.10000    4.51     3.00   1.73895  2.4658   3.60044
 0.05000    4.49     2.99   1.73929  2.4658   3.60096
-0.00000    4.47     2.98   1.73993  2.4659   3.60001
