 Field[T] Tsmpl[K] Tcntr[K] Signal Mirror[MM] RefSignal
 0.00000    4.66     2.98   2.16916  2.4889   0.69619
 0.05000    4.64     2.98   2.16910  2.4889   0.69487
 0.10000    4.63     2.98   2.17010  2.4889   0.69578
 0.15000    4.60     2.95   2.17038  2.4888   0.69784
 0.20000    4.56     2.94   2.16964  2.4888   0.69505
 0.25000    4.53     2.94   2.16957  2.4890   0.69704
 0.30000    4.49     2.91   2.16934  2.4889   0.69726
 0.35000    4.46     2.90   2.16921  2.4891   0.69647
 0.40000    4.43     2.90   2.16912  2.4891   0.69573
 0.45000    4.41     2.92   2.16829  2.4891   0.69840
 0.50000    4.39     2.91   2.16782  2.4891   0.69798
 0.55000    4.37     2.90   2.16563  2.4894   0.69702
 0.60000    4.36     2.92   2.16603  2.4894   0.69769
 0.65000    4.35     2.91   2.16483  2.4893   0.69736
 0.70000    4.34     2.91   2.16374  2.4894   0.69784
 0.75000    4.33     2.90   2.16237  2.4894   0.69917
 0.80000    4.32     2.93   2.16143  2.4895   0.69946
 0.85000    4.32     2.91   2.16045  2.4895   0.69854
 0.90000    4.31     2.92   2.15913  2.4896   0.69772
 0.95000    4.31     2.91   2.15737  2.4896   0.69839
 1.00000    4.30     2.92   2.15655  2.4896   0.69766
 1.05000    4.30     2.92   2.15458  2.4897   0.69919
 1.10000    4.30     2.91   2.15206  2.4898   0.69924
 1.15000    4.29     2.93   2.14887  2.4900   0.69874
 1.20000    4.29     2.92   2.14728  2.4899   0.69931
 1.25000    4.29     2.92   2.14412  2.4897   0.69994
 1.30000    4.29     2.94   2.14110  2.4900   0.69960
 1.35000    4.30     2.94   2.13786  2.4899   0.69854
 1.40000    4.31     2.95   2.13239  2.4899   0.69943
 1.45000    4.32     2.94   2.12778  2.4897   0.69957
 1.50000    4.33     2.96   2.12220  2.4896   0.69877
 1.55000    4.33     2.95   2.11649  2.4894   0.69943
 1.60000    4.34     2.95   2.11002  2.4893   0.69866
 1.65000    4.35     2.97   2.10492  2.4886   0.69980
 1.70000    4.35     2.96   2.10204  2.4879   0.70012
 1.75000    4.35     2.96   2.10600  2.4867   0.69970
 1.80000    4.35     2.96   2.11406  2.4862   0.69963
 1.85000    4.36     2.98   2.12438  2.4855   0.69978
 1.90000    4.36     2.97   2.13473  2.4855   0.70066
 1.95000    4.37     2.98   2.14370  2.4856   0.69890
 2.00000    4.37     2.99   2.15136  2.4856   0.70061
 2.05000    4.38     2.99   2.15672  2.4860   0.69989
 2.10000    4.38     2.99   2.16042  2.4861   0.70046
 2.15000    4.37     2.99   2.16351  2.4861   0.69952
 2.20000    4.37     3.00   2.16550  2.4863   0.69986
 2.25000    4.38     2.99   2.16793  2.4866   0.69935
 2.30000    4.39     3.00   2.16888  2.4867   0.69916
 2.35000    4.39     3.00   2.17047  2.4867   0.69969
 2.40000    4.39     3.00   2.17245  2.4869   0.70029
 2.45000    4.39     3.01   2.17296  2.4871   0.69878
 2.50000    4.39     3.00   2.17407  2.4873   0.69945
 2.55000    4.39     3.01   2.17425  2.4873   0.69956
 2.60000    4.39     3.01   2.17450  2.4874   0.69823
 2.65000    4.39     3.00   2.17575  2.4876   0.70002
 2.70000    4.38     3.01   2.17571  2.4876   0.69986
 2.75000    4.37     3.02   2.17708  2.4875   0.69936
 2.80000    4.37     3.01   2.17752  2.4876   0.69829
 2.85000    4.37     3.02   2.17800  2.4879   0.69991
 2.90000    4.38     3.02   2.17815  2.4880   0.69921
 2.95000    4.39     3.02   2.17891  2.4879   0.69908
 3.00000    4.41     3.03   2.17831  2.4880   0.69915
 3.05000    4.42     3.03   2.17878  2.4880   0.70048
 3.10000    4.44     3.03   2.17964  2.4881   0.69898
 3.15000    4.45     3.04   2.17958  2.4882   0.70011
 3.20000    4.46     3.04   2.17931  2.4882   0.69944
 3.25000    4.46     3.05   2.17943  2.4882   0.69923
 3.30000    4.47     3.03   2.18011  2.4883   0.69955
 3.35000    4.47     3.04   2.17976  2.4884   0.69892
 3.40000    4.48     3.05   2.17879  2.4884   0.69783
 3.45000    4.49     3.04   2.17945  2.4882   0.69957
 3.50000    4.50     3.04   2.17837  2.4886   0.69794
 3.55000    4.50     3.04   2.17997  2.4887   0.69962
 3.60000    4.51     3.04   2.17975  2.4887   0.69909
 3.65000    4.51     3.05   2.17915  2.4889   0.70120
 3.70000    4.51     3.03   2.17935  2.4889   0.69999
 3.75000    4.50     3.03   2.17855  2.4890   0.70016
 3.80000    4.50     3.04   2.17938  2.4889   0.69906
 3.85000    4.49     3.03   2.17915  2.4890   0.69843
 3.90000    4.49     3.02   2.17848  2.4892   0.69904
 3.95000    4.48     3.03   2.17876  2.4890   0.69825
 4.00000    4.48     3.02   2.17854  2.4890   0.69837
 4.05000    4.48     3.01   2.17847  2.4894   0.70043
 4.10000    4.48     3.01   2.17794  2.4894   0.69873
 4.15000    4.48     3.01   2.17780  2.4896   0.69929
 4.20000    4.48     3.03   2.17824  2.4895   0.70023
 4.25000    4.48     3.02   2.17716  2.4894   0.69994
 4.30000    4.48     3.02   2.17748  2.4895   0.69821
 4.35000    4.48     3.01   2.17702  2.4894   0.70022
 4.40000    4.49     3.03   2.17705  2.4895   0.70001
 4.45000    4.50     3.01   2.17665  2.4897   0.69851
 4.50000    4.50     3.01   2.17653  2.4898   0.69921
 4.55000    4.51     3.02   2.17570  2.4898   0.69796
 4.60000    4.52     3.01   2.17610  2.4899   0.70062
 4.65000    4.53     3.01   2.17532  2.4900   0.69950
 4.70000    4.53     3.03   2.17439  2.4900   0.69887
 4.75000    4.54     3.01   2.17404  2.4901   0.69873
 4.80000    4.54     3.02   2.17347  2.4901   0.69845
 4.85000    4.55     3.03   2.17300  2.4901   0.69755
 4.90000    4.55     3.01   2.17299  2.4900   0.69864
 4.95000    4.56     3.02   2.17287  2.4901   0.70007
 5.00000    4.57     3.03   2.17292  2.4902   0.69878
