 Field[T] Tsmpl[K] Tcntr[K] Signal Mirror[MM] RefSignal
 0.00000    4.29     2.89   2.14160  2.4780   3.02866
 0.05000    4.28     2.91   2.14066  2.4778   3.02768
 0.10000    4.27     2.90   2.13944  2.4779   3.02578
 0.15000    4.26     2.89   2.13840  2.4778   3.02512
 0.20000    4.25     2.90   2.13790  2.4779   3.02629
 0.25000    4.24     2.90   2.13599  2.4781   3.02237
 0.30000    4.23     2.92   2.13498  2.4779   3.02067
 0.35000    4.23     2.91   2.13403  2.4779   3.02107
 0.40000    4.22     2.91   2.13278  2.4780   3.01961
 0.45000    4.21     2.92   2.13034  2.4779   3.01925
 0.50000    4.20     2.92   2.13017  2.4780   3.01951
 0.55000    4.20     2.91   2.12833  2.4778   3.01764
 0.60000    4.19     2.92   2.12652  2.4781   3.01779
 0.65000    4.18     2.94   2.12439  2.4781   3.01680
 0.70000    4.18     2.93   2.12259  2.4777   3.01551
 0.75000    4.18     2.92   2.11936  2.4776   3.01450
 0.80000    4.18     2.93   2.11744  2.4779   3.01482
 0.85000    4.18     2.93   2.11494  2.4780   3.01316
 0.90000    4.18     2.93   2.11205  2.4779   3.01380
 0.95000    4.18     2.94   2.10875  2.4780   3.01203
 1.00000    4.18     2.93   2.10411  2.4781   3.01362
 1.05000    4.18     2.93   2.09964  2.4778   3.01330
 1.10000    4.17     2.95   2.09531  2.4775   3.01316
 1.15000    4.18     2.94   2.09085  2.4773   3.01029
 1.20000    4.17     2.95   2.08402  2.4771   3.01086
 1.25000    4.17     2.95   2.07748  2.4768   3.00930
 1.30000    4.18     2.95   2.07154  2.4762   3.00936
 1.35000    4.17     2.94   2.06678  2.4754   3.01008
 1.40000    4.17     2.94   2.06638  2.4741   3.00825
 1.45000    4.16     2.95   2.07208  2.4730   3.00851
 1.50000    4.16     2.96   2.08214  2.4723   3.00786
 1.55000    4.16     2.96   2.09293  2.4719   3.00781
 1.60000    4.16     2.96   2.10261  2.4718   3.00550
 1.65000    4.16     2.97   2.11031  2.4719   3.00576
 1.70000    4.17     2.97   2.11601  2.4721   3.00505
 1.75000    4.17     2.96   2.11974  2.4723   3.00491
 1.80000    4.17     2.96   2.12345  2.4724   3.00557
 1.85000    4.18     2.98   2.12586  2.4727   3.00460
 1.90000    4.18     2.97   2.12747  2.4728   3.00472
 1.95000    4.18     2.98   2.12938  2.4729   3.00492
 2.00000    4.19     2.98   2.13109  2.4729   3.00349
 2.05000    4.19     2.99   2.13269  2.4729   3.00242
 2.10000    4.20     3.00   2.13341  2.4730   3.00267
 2.15000    4.21     2.98   2.13362  2.4732   3.00323
 2.20000    4.21     2.99   2.13426  2.4734   3.00316
 2.25000    4.21     2.99   2.13482  2.4736   3.00293
 2.30000    4.22     3.00   2.13553  2.4735   3.00297
 2.35000    4.22     2.99   2.13613  2.4738   3.00129
 2.40000    4.23     2.99   2.13643  2.4740   3.00103
 2.45000    4.23     3.00   2.13651  2.4739   3.00167
 2.50000    4.24     2.99   2.13598  2.4738   3.00004
 2.55000    4.24     2.99   2.13616  2.4741   3.00303
 2.60000    4.25     3.00   2.13692  2.4742   3.00254
 2.65000    4.26     3.00   2.13619  2.4743   3.00045
 2.70000    4.27     3.00   2.13675  2.4742   3.00057
 2.75000    4.29     3.00   2.13667  2.4743   3.00209
 2.80000    4.30     3.01   2.13625  2.4744   2.99912
 2.85000    4.31     3.00   2.13589  2.4745   3.00016
 2.90000    4.32     3.00   2.13604  2.4746   3.00010
 2.95000    4.33     3.02   2.13601  2.4747   2.99940
 3.00000    4.34     3.00   2.13589  2.4747   2.99955
 3.05000    4.34     3.00   2.13514  2.4747   2.99877
 3.10000    4.35     3.00   2.13514  2.4748   2.99867
 3.15000    4.35     3.01   2.13514  2.4746   2.99850
 3.20000    4.36     3.01   2.13406  2.4746   2.99827
 3.25000    4.36     3.01   2.13406  2.4749   2.99571
 3.30000    4.36     3.01   2.13357  2.4749   2.99883
 3.35000    4.36     3.01   2.13397  2.4749   2.99651
 3.40000    4.36     3.01   2.13425  2.4747   2.99676
 3.45000    4.37     3.01   2.13205  2.4751   2.99844
 3.50000    4.37     3.01   2.13301  2.4752   2.99672
 3.55000    4.38     3.01   2.13300  2.4752   2.99593
 3.60000    4.38     3.01   2.13191  2.4752   2.99777
 3.65000    4.38     3.01   2.13121  2.4753   2.99752
 3.70000    4.39     3.01   2.13091  2.4754   2.99617
 3.75000    4.40     3.02   2.12985  2.4754   2.99391
 3.80000    4.41     3.02   2.13029  2.4752   2.99519
 3.85000    4.42     3.03   2.12991  2.4751   2.99522
 3.90000    4.43     3.03   2.12886  2.4755   2.99634
 3.95000    4.43     3.02   2.12821  2.4755   2.99685
 4.00000    4.44     3.03   2.12771  2.4756   2.99641
