 Field[T] Tsmpl[K] Tcntr[K] Signal Mirror[MM] RefSignal
 0.00000    4.39     2.91   0.61061  3.0815   1.14223
 0.06250    4.39     2.93   0.61164  3.0815   1.14531
 0.12500    4.38     2.94   0.61099  3.0817   1.14522
 0.18750    4.36     2.93   0.61011  3.0816   1.14391
 0.25000    4.36     2.93   0.60952  3.0816   1.14275
 0.31250    4.36     2.94   0.60908  3.0816   1.14214
 0.37500    4.36     2.97   0.60935  3.0816   1.14205
 0.43750    4.36     2.95   0.60918  3.0818   1.14174
 0.50000    4.36     2.96   0.60824  3.0817   1.14044
 0.56250    4.36     2.97   0.60810  3.0819   1.14203
 0.62500    4.37     2.96   0.60897  3.0819   1.14275
 0.68750    4.36     2.95   0.60853  3.0819   1.14188
 0.75000    4.35     2.94   0.60833  3.0819   1.14300
 0.81250    4.34     2.94   0.60918  3.0819   1.14390
 0.87500    4.31     2.89   0.60788  3.0823   1.14193
 0.93750    4.29     2.90   0.60725  3.0823   1.14030
 1.00000    4.28     2.92   0.60712  3.0818   1.14093
 1.06250    4.28     2.93   0.60600  3.0816   1.14016
 1.12500    4.28     2.95   0.60622  3.0818   1.13979
 1.18750    4.28     2.94   0.60584  3.0819   1.13965
 1.25000    4.27     2.94   0.60608  3.0823   1.14098
 1.31250    4.26     2.91   0.60537  3.0823   1.14162
 1.37500    4.25     2.93   0.60524  3.0824   1.14024
 1.43750    4.24     2.93   0.60451  3.0826   1.14025
 1.50000    4.24     2.93   0.60347  3.0826   1.13995
 1.56250    4.24     2.96   0.60365  3.0827   1.14097
 1.62500    4.24     2.95   0.60210  3.0826   1.13835
 1.68750    4.24     2.92   0.60093  3.0828   1.13865
 1.75000    4.24     2.94   0.59981  3.0827   1.13840
 1.81250    4.23     2.95   0.59863  3.0829   1.14075
 1.87500    4.22     2.95   0.59717  3.0831   1.13776
 1.93750    4.23     2.97   0.59559  3.0833   1.13895
 2.00000    4.24     2.97   0.59257  3.0836   1.13825
 2.06250    4.24     2.97   0.58918  3.0833   1.13793
 2.12500    4.25     2.99   0.58698  3.0828   1.13902
 2.18750    4.26     2.98   0.58557  3.0820   1.13755
 2.25000    4.26     2.98   0.58681  3.0815   1.13986
 2.31250    4.28     2.99   0.58910  3.0809   1.14044
 2.37500    4.30     2.99   0.59116  3.0806   1.14225
 2.43750    4.32     2.99   0.59282  3.0803   1.14259
 2.50000    4.34     3.01   0.59501  3.0803   1.14268
 2.56250    4.35     2.99   0.59603  3.0803   1.14089
 2.62500    4.37     3.01   0.59522  3.0806   1.13820
 2.68750    4.38     3.01   0.59399  3.0808   1.13643
 2.75000    4.39     3.00   0.59395  3.0808   1.13378
 2.81250    4.39     3.01   0.59467  3.0808   1.13395
 2.87500    4.40     3.02   0.59452  3.0807   1.13257
 2.93750    4.41     3.01   0.59485  3.0810   1.13477
 3.00000    4.41     3.02   0.59554  3.0810   1.13330
 3.06250    4.42     3.01   0.59529  3.0810   1.13359
 3.12500    4.43     3.01   0.59579  3.0810   1.13360
 3.18750    4.45     3.03   0.59633  3.0812   1.13339
 3.25000    4.47     3.02   0.59638  3.0813   1.13451
 3.31250    4.48     3.03   0.59615  3.0813   1.13426
 3.37500    4.50     3.05   0.59670  3.0816   1.13586
 3.43750    4.52     3.04   0.59672  3.0816   1.13405
 3.50000    4.53     3.04   0.59608  3.0815   1.13407
 3.56250    4.55     3.05   0.59573  3.0816   1.13125
 3.62500    4.57     3.04   0.59588  3.0816   1.13287
 3.68750    4.58     3.05   0.59564  3.0816   1.13248
 3.75000    4.60     3.04   0.59576  3.0814   1.13206
 3.81250    4.60     3.04   0.59596  3.0820   1.13248
 3.87500    4.62     3.04   0.59613  3.0817   1.13240
 3.93750    4.62     3.05   0.59708  3.0820   1.13245
 4.00000    4.62     3.05   0.59654  3.0819   1.13215
 4.06250    4.63     3.04   0.59620  3.0820   1.13145
 4.12500    4.63     3.04   0.59600  3.0821   1.13080
 4.18750    4.64     3.04   0.59606  3.0821   1.13209
 4.25000    4.65     3.04   0.59515  3.0819   1.13046
 4.31250    4.66     3.05   0.59525  3.0819   1.13232
 4.37500    4.68     3.06   0.59580  3.0820   1.13245
 4.43750    4.70     3.05   0.59670  3.0820   1.13415
 4.50000    4.71     3.04   0.59635  3.0821   1.13279
 4.56250    4.73     3.06   0.59590  3.0821   1.13255
 4.62500    4.74     3.04   0.59586  3.0821   1.13222
 4.68750    4.75     3.04   0.59636  3.0824   1.13332
 4.75000    4.75     3.04   0.59639  3.0826   1.13226
 4.81250    4.76     3.02   0.59568  3.0825   1.13315
 4.87500    4.77     3.05   0.59557  3.0825   1.13254
 4.93750    4.78     3.06   0.59544  3.0828   1.13191
 5.00000    4.79     3.05   0.59548  3.0828   1.13127
