 Field[T] Tsmpl[K] Tcntr[K] Signal   Mirror[MM]
 0.00000    1.78     1.78   0.19064  -12.1708
 0.05000    1.78     1.78   0.19001  -12.1707
 0.10000    1.78     1.78   0.19034  -12.1707
 0.15000    1.78     1.78   0.19012  -12.1711
 0.20000    1.78     1.78   0.18961  -12.1710
 0.25000    1.78     1.78   0.18918  -12.1711
 0.30000    1.78     1.78   0.18857  -12.1713
 0.35000    1.78     1.78   0.18754  -12.1712
 0.40000    1.78     1.78   0.18589  -12.1713
 0.45000    1.78     1.78   0.18469  -12.1747
 0.50000    1.78     1.78   0.18409  -12.1775
 0.55000    1.78     1.78   0.18379  -12.1800
 0.60000    1.78     1.78   0.18371  -12.1824
 0.65000    1.78     1.78   0.18380  -12.1844
 0.70000    1.78     1.78   0.18398  -12.1864
 0.75000    1.78     1.78   0.18391  -12.1881
 0.80000    1.78     1.78   0.18464  -12.1901
 0.85000    1.78     1.78   0.18501  -12.1917
 0.90000    1.78     1.78   0.18550  -12.1927
 0.95000    1.78     1.78   0.18602  -12.1938
 1.00000    1.78     1.78   0.18630  -12.1945
 1.05000    1.78     1.78   0.18686  -12.1954
 1.10000    1.78     1.78   0.18701  -12.1959
 1.15000    1.78     1.78   0.18728  -12.1964
 1.20000    1.78     1.78   0.18737  -12.1969
 1.25000    1.78     1.78   0.18810  -12.1973
 1.30000    1.78     1.78   0.18839  -12.1978
 1.35000    1.78     1.78   0.18867  -12.1982
 1.40000    1.78     1.78   0.18893  -12.1989
 1.45000    1.78     1.78   0.18922  -12.1994
 1.50000    1.78     1.78   0.18955  -12.1993
 1.55000    1.78     1.78   0.18958  -12.1995
 1.60000    1.78     1.78   0.18996  -12.1995
 1.65000    1.78     1.78   0.19021  -12.1994
 1.70000    1.78     1.78   0.19041  -12.1995
 1.75000    1.78     1.78   0.19067  -12.1997
 1.80000    1.78     1.78   0.19092  -12.1997
 1.85000    1.78     1.78   0.19096  -12.1997
 1.90000    1.78     1.78   0.19111  -12.1995
 1.95000    1.78     1.78   0.19141  -12.1994
 2.00000    1.78     1.78   0.19135  -12.1995
 2.05000    1.78     1.78   0.19136  -12.1995
 2.10000    1.78     1.78   0.19165  -12.1996
 2.15000    1.78     1.78   0.19160  -12.1993
 2.20000    1.78     1.78   0.19153  -12.1991
 2.25000    1.78     1.78   0.19169  -12.1992
 2.30000    1.78     1.78   0.19160  -12.1991
 2.35000    1.78     1.78   0.19168  -12.1993
 2.40000    1.78     1.78   0.19186  -12.1992
 2.45000    1.78     1.78   0.19173  -12.1991
 2.50000    1.78     1.78   0.19183  -12.1990
 2.55000    1.78     1.78   0.19167  -12.1989
 2.60000    1.78     1.78   0.19166  -12.1988
 2.65000    1.78     1.78   0.19173  -12.1992
 2.70000    1.78     1.78   0.19187  -12.1992
 2.75000    1.78     1.78   0.19164  -12.1985
 2.80000    1.78     1.78   0.19164  -12.1986
 2.85000    1.78     1.78   0.19165  -12.1986
 2.90000    1.78     1.78   0.19154  -12.1986
 2.95000    1.78     1.78   0.19158  -12.1985
 3.00000    1.78     1.78   0.19153  -12.1986
 3.05000    1.78     1.78   0.19169  -12.1985
 3.10000    1.78     1.78   0.19165  -12.1985
 3.15000    1.78     1.78   0.19164  -12.1986
 3.20000    1.78     1.78   0.19169  -12.1985
 3.25000    1.78     1.78   0.19160  -12.1985
 3.30000    1.78     1.78   0.19148  -12.1985
 3.35000    1.78     1.78   0.19179  -12.1983
 3.40000    1.78     1.78   0.19182  -12.1984
 3.45000    1.78     1.78   0.19163  -12.1983
 3.50000    1.78     1.78   0.19165  -12.1986
 3.55000    1.78     1.78   0.19151  -12.1981
 3.60000    1.78     1.78   0.19152  -12.1983
 3.65000    1.78     1.78   0.19148  -12.1981
 3.70000    1.78     1.78   0.19148  -12.1980
 3.75000    1.78     1.78   0.19140  -12.1983
 3.80000    1.78     1.78   0.19135  -12.1981
 3.85000    1.78     1.78   0.19152  -12.1980
 3.90000    1.78     1.78   0.19149  -12.1982
 3.95000    1.78     1.78   0.19148  -12.1980
 4.00000    1.78     1.78   0.19157  -12.1980
 4.00000    1.78     1.78   0.19121  -12.1978
 3.95000    1.78     1.78   0.19132  -12.1978
 3.90000    1.78     1.78   0.19154  -12.1981
 3.85000    1.78     1.78   0.19127  -12.1981
 3.80000    1.78     1.78   0.19132  -12.1980
 3.75000    1.78     1.78   0.19150  -12.1981
 3.70000    1.78     1.78   0.19133  -12.1982
 3.65000    1.78     1.78   0.19165  -12.1985
 3.60000    1.78     1.78   0.19149  -12.1983
 3.55000    1.78     1.78   0.19146  -12.1984
 3.50000    1.78     1.78   0.19133  -12.1984
 3.45000    1.78     1.78   0.19149  -12.1984
 3.40000    1.78     1.78   0.19170  -12.1986
 3.35000    1.78     1.78   0.19141  -12.1988
 3.30000    1.78     1.78   0.19123  -12.1988
 3.25000    1.78     1.78   0.19113  -12.1989
 3.20000    1.78     1.78   0.19115  -12.1986
 3.15000    1.78     1.78   0.19112  -12.1987
 3.10000    1.78     1.78   0.19105  -12.1989
 3.05000    1.78     1.78   0.19087  -12.1991
 3.00000    1.78     1.78   0.19088  -12.1990
 2.95000    1.78     1.78   0.19106  -12.1993
 2.90000    1.78     1.78   0.19086  -12.1995
 2.85000    1.78     1.78   0.19066  -12.1994
 2.80000    1.78     1.78   0.19054  -12.1997
 2.75000    1.78     1.78   0.19035  -12.2000
 2.70000    1.78     1.78   0.19037  -12.1999
 2.65000    1.78     1.78   0.19035  -12.1999
 2.60000    1.78     1.78   0.19013  -12.1997
 2.55000    1.78     1.78   0.19043  -12.1997
 2.50000    1.78     1.78   0.19021  -12.1999
 2.45000    1.78     1.78   0.18987  -12.1999
 2.40000    1.78     1.78   0.18991  -12.2002
 2.35000    1.78     1.78   0.18988  -12.2001
 2.30000    1.78     1.78   0.18989  -12.2003
 2.25000    1.78     1.78   0.18985  -12.2001
 2.20000    1.78     1.78   0.18983  -12.2002
 2.15000    1.78     1.78   0.18965  -12.2004
 2.10000    1.78     1.78   0.18926  -12.2005
 2.05000    1.78     1.78   0.18949  -12.2007
 2.00000    1.78     1.78   0.18918  -12.2002
 1.95000    1.78     1.78   0.18911  -12.1997
 1.90000    1.78     1.78   0.18894  -12.1999
 1.85000    1.78     1.78   0.18875  -12.1999
 1.80000    1.78     1.78   0.18834  -12.1999
 1.75000    1.78     1.78   0.18820  -12.2000
 1.70000    1.78     1.78   0.18782  -12.1999
 1.65000    1.78     1.78   0.18774  -12.2002
 1.60000    1.78     1.78   0.18732  -12.2002
 1.55000    1.78     1.78   0.18706  -12.1999
 1.50000    1.78     1.78   0.18677  -12.1999
 1.45000    1.78     1.78   0.18631  -12.1997
 1.40000    1.78     1.78   0.18574  -12.1992
 1.35000    1.78     1.78   0.18577  -12.1990
 1.30000    1.78     1.78   0.18538  -12.1989
 1.25000    1.78     1.78   0.18500  -12.1986
 1.20000    1.78     1.78   0.18455  -12.1981
 1.15000    1.78     1.78   0.18406  -12.1976
 1.10000    1.78     1.78   0.18384  -12.1969
 1.05000    1.78     1.78   0.18346  -12.1961
 1.00000    1.78     1.78   0.18285  -12.1958
 0.95000    1.78     1.78   0.18247  -12.1951
 0.90000    1.78     1.78   0.18198  -12.1941
 0.85000    1.78     1.78   0.18159  -12.1932
 0.80000    1.78     1.78   0.18067  -12.1918
 0.75000    1.78     1.78   0.18047  -12.1902
 0.70000    1.78     1.78   0.17991  -12.1882
 0.65000    1.78     1.78   0.17989  -12.1863
 0.60000    1.78     1.78   0.17957  -12.1844
 0.55000    1.78     1.78   0.17960  -12.1825
 0.50000    1.78     1.78   0.17983  -12.1798
 0.45000    1.78     1.78   0.18019  -12.1771
 0.40000    1.78     1.78   0.18122  -12.1741
 0.35000    1.78     1.78   0.18281  -12.1738
 0.30000    1.78     1.78   0.18369  -12.1737
 0.25000    1.78     1.78   0.18407  -12.1741
 0.20000    1.78     1.78   0.18439  -12.1742
 0.15000    1.78     1.78   0.18456  -12.1743
 0.10000    1.78     1.78   0.18486  -12.1744
 0.05000    1.78     1.78   0.18518  -12.1744
 -0.00000    1.78     1.78   0.18519  -12.1745
