 Field[T] Tsmpl[K] Tcntr[K] Signal   Mirror[MM]
 0.00000    1.76     1.76   0.17894  -12.1797
 0.05000    1.76     1.76   0.17886  -12.1796
 0.10000    1.76     1.76   0.17890  -12.1798
 0.15000    1.76     1.76   0.17889  -12.1797
 0.20000    1.76     1.76   0.17891  -12.1797
 0.25000    1.76     1.76   0.17885  -12.1795
 0.30000    1.76     1.76   0.17883  -12.1797
 0.35000    1.76     1.76   0.17883  -12.1795
 0.40000    1.76     1.76   0.17874  -12.1797
 0.45000    1.76     1.76   0.17868  -12.1796
 0.50000    1.76     1.76   0.17879  -12.1798
 0.55000    1.76     1.76   0.17868  -12.1795
 0.60000    1.76     1.76   0.17861  -12.1797
 0.65000    1.76     1.76   0.17853  -12.1798
 0.70000    1.76     1.76   0.17854  -12.1794
 0.75000    1.76     1.76   0.17831  -12.1791
 0.80000    1.76     1.76   0.17823  -12.1790
 0.85000    1.76     1.76   0.17817  -12.1788
 0.90000    1.76     1.76   0.17801  -12.1787
 0.95000    1.76     1.76   0.17759  -12.1779
 1.00000    1.76     1.76   0.17670  -12.1773
 1.05000    1.76     1.76   0.17534  -12.1772
 1.10000    1.76     1.76   0.17432  -12.1779
 1.15000    1.76     1.76   0.17368  -12.1787
 1.20000    1.76     1.76   0.17327  -12.1796
 1.25000    1.76     1.76   0.17308  -12.1804
 1.30000    1.76     1.76   0.17310  -12.1811
 1.35000    1.76     1.76   0.17315  -12.1817
 1.40000    1.76     1.76   0.17325  -12.1827
 1.45000    1.76     1.76   0.17354  -12.1834
 1.50000    1.76     1.76   0.17398  -12.1835
 1.55000    1.76     1.76   0.17428  -12.1838
 1.60000    1.76     1.76   0.17456  -12.1840
 1.65000    1.76     1.76   0.17474  -12.1838
 1.70000    1.76     1.76   0.17488  -12.1839
 1.75000    1.76     1.76   0.17482  -12.1839
 1.80000    1.76     1.76   0.17494  -12.1838
 1.85000    1.76     1.76   0.17490  -12.1839
 1.90000    1.76     1.76   0.17486  -12.1841
 1.95000    1.76     1.76   0.17478  -12.1840
 2.00000    1.76     1.76   0.17472  -12.1841
 2.05000    1.76     1.76   0.17472  -12.1841
 2.10000    1.76     1.76   0.17472  -12.1841
 2.15000    1.76     1.76   0.17468  -12.1845
 2.20000    1.76     1.76   0.17473  -12.1845
 2.25000    1.76     1.76   0.17474  -12.1848
 2.30000    1.76     1.76   0.17471  -12.1848
 2.35000    1.76     1.76   0.17478  -12.1849
 2.40000    1.76     1.76   0.17482  -12.1850
 2.45000    1.76     1.76   0.17490  -12.1851
 2.50000    1.76     1.76   0.17496  -12.1854
 2.55000    1.76     1.76   0.17505  -12.1855
 2.60000    1.76     1.76   0.17503  -12.1856
 2.65000    1.76     1.76   0.17514  -12.1858
 2.70000    1.76     1.76   0.17519  -12.1858
 2.75000    1.76     1.76   0.17531  -12.1859
 2.80000    1.76     1.76   0.17535  -12.1857
 2.85000    1.76     1.76   0.17538  -12.1858
 2.90000    1.76     1.76   0.17547  -12.1860
 2.95000    1.76     1.76   0.17555  -12.1859
 3.00000    1.76     1.76   0.17563  -12.1859
 3.05000    1.76     1.76   0.17558  -12.1859
 3.10000    1.76     1.76   0.17572  -12.1861
 3.15000    1.76     1.76   0.17571  -12.1858
 3.20000    1.76     1.76   0.17575  -12.1857
 3.25000    1.76     1.76   0.17582  -12.1858
 3.30000    1.76     1.76   0.17585  -12.1857
 3.35000    1.76     1.76   0.17585  -12.1858
 3.40000    1.76     1.76   0.17594  -12.1858
 3.45000    1.76     1.76   0.17595  -12.1859
 3.50000    1.76     1.76   0.17593  -12.1857
 3.55000    1.76     1.76   0.17602  -12.1858
 3.60000    1.76     1.76   0.17605  -12.1856
 3.65000    1.76     1.76   0.17597  -12.1856
 3.70000    1.76     1.76   0.17604  -12.1858
 3.75000    1.76     1.76   0.17605  -12.1860
 3.80000    1.76     1.76   0.17600  -12.1857
 3.85000    1.76     1.76   0.17598  -12.1854
 3.90000    1.76     1.76   0.17604  -12.1855
 3.95000    1.76     1.76   0.17623  -12.1855
 4.00000    1.76     1.76   0.17617  -12.1855
 4.00000    1.76     1.76   0.17611  -12.1854
 3.95000    1.76     1.76   0.17619  -12.1855
 3.90000    1.76     1.76   0.17611  -12.1856
 3.85000    1.76     1.76   0.17612  -12.1856
 3.80000    1.76     1.76   0.17598  -12.1855
 3.75000    1.76     1.76   0.17601  -12.1856
 3.70000    1.76     1.76   0.17605  -12.1856
 3.65000    1.76     1.76   0.17599  -12.1853
 3.60000    1.76     1.76   0.17588  -12.1854
 3.55000    1.76     1.76   0.17587  -12.1856
 3.50000    1.76     1.76   0.17581  -12.1854
 3.45000    1.76     1.76   0.17577  -12.1855
 3.40000    1.76     1.76   0.17570  -12.1853
 3.35000    1.76     1.76   0.17569  -12.1853
 3.30000    1.76     1.76   0.17570  -12.1853
 3.25000    1.76     1.76   0.17568  -12.1854
 3.20000    1.76     1.76   0.17558  -12.1855
 3.15000    1.76     1.76   0.17549  -12.1855
 3.10000    1.76     1.76   0.17541  -12.1853
 3.05000    1.76     1.76   0.17529  -12.1855
 3.00000    1.76     1.76   0.17534  -12.1858
 2.95000    1.76     1.76   0.17529  -12.1853
 2.90000    1.76     1.76   0.17515  -12.1853
 2.85000    1.76     1.76   0.17510  -12.1852
 2.80000    1.76     1.76   0.17505  -12.1851
 2.75000    1.76     1.76   0.17497  -12.1850
 2.70000    1.76     1.76   0.17500  -12.1851
 2.65000    1.76     1.76   0.17481  -12.1850
 2.60000    1.76     1.76   0.17476  -12.1848
 2.55000    1.76     1.76   0.17465  -12.1847
 2.50000    1.76     1.76   0.17459  -12.1845
 2.45000    1.76     1.76   0.17450  -12.1844
 2.40000    1.76     1.76   0.17447  -12.1843
 2.35000    1.76     1.76   0.17431  -12.1843
 2.30000    1.76     1.76   0.17426  -12.1843
 2.25000    1.76     1.76   0.17436  -12.1841
 2.20000    1.76     1.76   0.17433  -12.1836
 2.15000    1.76     1.76   0.17428  -12.1836
 2.10000    1.76     1.76   0.17424  -12.1836
 2.05000    1.76     1.76   0.17433  -12.1832
 2.00000    1.76     1.76   0.17433  -12.1831
 1.95000    1.76     1.76   0.17429  -12.1828
 1.90000    1.76     1.76   0.17437  -12.1828
 1.85000    1.76     1.76   0.17448  -12.1827
 1.80000    1.76     1.76   0.17454  -12.1828
 1.75000    1.76     1.76   0.17451  -12.1827
 1.70000    1.76     1.76   0.17440  -12.1827
 1.65000    1.76     1.76   0.17427  -12.1828
 1.60000    1.76     1.76   0.17420  -12.1828
 1.55000    1.76     1.76   0.17383  -12.1827
 1.50000    1.76     1.76   0.17352  -12.1823
 1.45000    1.76     1.76   0.17325  -12.1822
 1.40000    1.76     1.76   0.17274  -12.1817
 1.35000    1.76     1.76   0.17256  -12.1809
 1.30000    1.76     1.76   0.17250  -12.1801
 1.25000    1.76     1.76   0.17248  -12.1794
 1.20000    1.76     1.76   0.17273  -12.1787
 1.15000    1.76     1.76   0.17303  -12.1779
 1.10000    1.76     1.76   0.17363  -12.1770
 1.05000    1.76     1.76   0.17468  -12.1761
 1.00000    1.76     1.76   0.17616  -12.1759
 0.95000    1.76     1.76   0.17710  -12.1768
 0.90000    1.76     1.76   0.17746  -12.1773
 0.85000    1.76     1.76   0.17769  -12.1778
 0.80000    1.76     1.76   0.17771  -12.1778
 0.75000    1.76     1.76   0.17790  -12.1782
 0.70000    1.76     1.76   0.17796  -12.1784
 0.65000    1.76     1.76   0.17806  -12.1785
 0.60000    1.76     1.76   0.17816  -12.1787
 0.55000    1.76     1.76   0.17806  -12.1783
 0.50000    1.76     1.76   0.17821  -12.1787
 0.45000    1.76     1.76   0.17828  -12.1785
 0.40000    1.76     1.76   0.17833  -12.1786
 0.35000    1.76     1.76   0.17834  -12.1785
 0.30000    1.76     1.76   0.17840  -12.1788
 0.25000    1.76     1.76   0.17847  -12.1784
 0.20000    1.76     1.76   0.17837  -12.1784
 0.15000    1.76     1.76   0.17834  -12.1785
 0.10000    1.76     1.76   0.17846  -12.1785
 0.05000    1.76     1.76   0.17853  -12.1785
 -0.00000    1.76     1.76   0.17850  -12.1783
