 Field[T] Tsmpl[K] Tcntr[K] Signal   Mirror[MM]
 0.00000    1.70     1.70   0.16342  -12.2744
 0.05000    1.70     1.70   0.16390  -12.2658
 0.10000    1.70     1.70   0.16436  -12.2648
 0.15000    1.70     1.70   0.16475  -12.2617
 0.20000    1.70     1.70   0.16453  -12.2539
 0.25000    1.70     1.70   0.16524  -12.2495
 0.30000    1.70     1.70   0.16604  -12.2438
 0.35000    1.70     1.70   0.16526  -12.2373
 0.40000    1.70     1.70   0.16481  -12.2317
 0.45000    1.70     1.70   0.16292  -12.2264
 0.50000    1.70     1.70   0.16155  -12.2248
 0.55000    1.70     1.70   0.16059  -12.2264
 0.60000    1.70     1.70   0.15949  -12.2297
 0.65000    1.70     1.70   0.15910  -12.2320
 0.70000    1.70     1.70   0.15919  -12.2336
 0.75000    1.70     1.70   0.15940  -12.2308
 0.80000    1.70     1.70   0.15882  -12.2395
 0.85000    1.70     1.70   0.15924  -12.2434
 0.90000    1.70     1.70   0.15914  -12.2458
 0.95000    1.70     1.70   0.15891  -12.2478
 1.00000    1.70     1.70   0.15910  -12.2514
 1.05000    1.70     1.70   0.16017  -12.2554
 1.10000    1.70     1.70   0.16006  -12.2564
 1.15000    1.70     1.70   0.16048  -12.2587
 1.20000    1.70     1.70   0.16089  -12.2592
 1.25000    1.70     1.70   0.16150  -12.2609
 1.30000    1.70     1.70   0.16173  -12.2602
 1.35000    1.70     1.70   0.16139  -12.2595
 1.40000    1.70     1.70   0.16208  -12.2609
 1.45000    1.70     1.70   0.16303  -12.2618
 1.50000    1.70     1.70   0.16337  -12.2624
 1.55000    1.70     1.70   0.16388  -12.2631
 1.60000    1.70     1.70   0.16426  -12.2626
 1.65000    1.70     1.70   0.16454  -12.2568
 1.70000    1.70     1.70   0.16485  -12.2455
 1.75000    1.70     1.70   0.16416  -12.2535
 1.80000    1.70     1.70   0.16566  -12.2550
 1.85000    1.70     1.70   0.16734  -12.2590
 1.90000    1.70     1.70   0.16659  -12.2582
 1.95000    1.70     1.70   0.16552  -12.2621
 2.00000    1.70     1.70   0.16751  -12.2657
 2.05000    1.70     1.70   0.16887  -12.2629
 2.10000    1.70     1.70   0.16876  -12.2616
 2.15000    1.70     1.70   0.16850  -12.2578
 2.20000    1.70     1.70   0.16932  -12.2584
 2.25000    1.70     1.70   0.16961  -12.2579
 2.30000    1.70     1.70   0.16985  -12.2569
 2.35000    1.70     1.70   0.16940  -12.2559
 2.40000    1.70     1.70   0.17017  -12.2556
 2.45000    1.70     1.70   0.17044  -12.2553
 2.50000    1.70     1.70   0.17045  -12.2538
 2.55000    1.70     1.70   0.17034  -12.2534
 2.60000    1.70     1.70   0.17049  -12.2530
 2.65000    1.70     1.70   0.17052  -12.2531
 2.70000    1.70     1.70   0.17063  -12.2546
 2.75000    1.70     1.70   0.17090  -12.2540
 2.80000    1.70     1.70   0.17135  -12.2533
 2.85000    1.70     1.70   0.17121  -12.2529
 2.90000    1.70     1.70   0.17165  -12.2541
 2.95000    1.70     1.70   0.17175  -12.2543
 3.00000    1.70     1.70   0.17198  -12.2538
 3.05000    1.70     1.70   0.17195  -12.2525
 3.10000    1.70     1.70   0.17153  -12.2507
 3.15000    1.70     1.70   0.17209  -12.2508
 3.20000    1.70     1.70   0.17254  -12.2502
 3.25000    1.70     1.70   0.17234  -12.2504
 3.30000    1.70     1.70   0.17234  -12.2510
 3.35000    1.70     1.70   0.17283  -12.2498
 3.40000    1.70     1.70   0.17139  -12.2511
 3.45000    1.70     1.70   0.17192  -12.2533
 3.50000    1.70     1.70   0.17377  -12.2477
 3.55000    1.70     1.70   0.17378  -12.2511
 3.60000    1.70     1.70   0.17338  -12.2522
 3.65000    1.70     1.70   0.17234  -12.2544
 3.70000    1.70     1.70   0.17297  -12.2527
 3.75000    1.70     1.70   0.17332  -12.2526
 3.80000    1.70     1.70   0.17401  -12.2549
 3.85000    1.70     1.70   0.17332  -12.2540
 3.90000    1.70     1.70   0.17398  -12.2530
 3.95000    1.70     1.70   0.17450  -12.2531
 4.00000    1.70     1.70   0.17424  -12.2524
 4.00000    1.70     1.70   0.17406  -12.2509
 3.95000    1.70     1.70   0.17462  -12.2490
 3.90000    1.70     1.70   0.17459  -12.2480
 3.85000    1.70     1.70   0.17464  -12.2488
 3.80000    1.70     1.70   0.17409  -12.2473
 3.75000    1.70     1.70   0.17427  -12.2480
 3.70000    1.70     1.70   0.17536  -12.2456
 3.65000    1.70     1.70   0.17436  -12.2474
 3.60000    1.70     1.70   0.17381  -12.2470
 3.55000    1.70     1.70   0.17548  -12.2496
 3.50000    1.70     1.70   0.17625  -12.2491
 3.45000    1.70     1.70   0.17597  -12.2457
 3.40000    1.70     1.70   0.17520  -12.2475
 3.35000    1.70     1.70   0.17571  -12.2488
 3.30000    1.70     1.70   0.17532  -12.2502
 3.25000    1.70     1.70   0.17524  -12.2514
 3.20000    1.70     1.70   0.17567  -12.2516
 3.15000    1.70     1.70   0.17591  -12.2517
 3.10000    1.70     1.70   0.17613  -12.2513
 3.05000    1.70     1.70   0.17622  -12.2492
 3.00000    1.70     1.70   0.17546  -12.2436
 2.95000    1.70     1.70   0.17441  -12.2439
 2.90000    1.70     1.70   0.17653  -12.2465
 2.85000    1.70     1.70   0.17657  -12.2433
 2.80000    1.70     1.70   0.17569  -12.2473
 2.75000    1.70     1.70   0.17625  -12.2498
 2.70000    1.70     1.70   0.17602  -12.2484
 2.65000    1.70     1.70   0.17528  -12.2486
 2.60000    1.70     1.70   0.17640  -12.2475
 2.55000    1.70     1.70   0.17856  -12.2511
 2.50000    1.70     1.70   0.17667  -12.2472
 2.45000    1.70     1.70   0.17587  -12.2466
 2.40000    1.70     1.70   0.17693  -12.2507
 2.35000    1.70     1.70   0.17650  -12.2495
 2.30000    1.70     1.70   0.17640  -12.2465
 2.25000    1.70     1.70   0.17581  -12.2489
 2.20000    1.70     1.70   0.17672  -12.2478
 2.15000    1.70     1.70   0.17625  -12.2518
 2.10000    1.70     1.70   0.17724  -12.2544
 2.05000    1.70     1.70   0.17720  -12.2519
 2.00000    1.70     1.70   0.17730  -12.2521
 1.95000    1.70     1.70   0.17679  -12.2519
 1.90000    1.70     1.70   0.17605  -12.2518
 1.85000    1.70     1.70   0.17646  -12.2527
 1.80000    1.70     1.70   0.17682  -12.2517
 1.75000    1.70     1.70   0.17625  -12.2525
 1.70000    1.70     1.70   0.17655  -12.2513
 1.65000    1.70     1.70   0.17612  -12.2558
 1.60000    1.70     1.70   0.17661  -12.2528
 1.55000    1.70     1.70   0.17622  -12.2550
 1.50000    1.70     1.70   0.17562  -12.2552
 1.45000    1.70     1.70   0.17448  -12.2474
 1.40000    1.70     1.70   0.17674  -12.2433
 1.35000    1.70     1.70   0.17685  -12.2494
 1.30000    1.70     1.70   0.17636  -12.2526
 1.25000    1.70     1.70   0.17655  -12.2528
 1.20000    1.70     1.70   0.17594  -12.2514
 1.15000    1.70     1.70   0.17487  -12.2532
 1.10000    1.70     1.70   0.17517  -12.2530
 1.05000    1.70     1.70   0.17514  -12.2517
 1.00000    1.70     1.70   0.17515  -12.2478
 0.95000    1.70     1.70   0.17452  -12.2469
 0.90000    1.70     1.70   0.17452  -12.2425
 0.85000    1.70     1.70   0.17536  -12.2390
 0.80000    1.70     1.70   0.17431  -12.2358
 0.75000    1.70     1.70   0.17452  -12.2332
 0.70000    1.70     1.70   0.17574  -12.2320
 0.65000    1.70     1.70   0.17611  -12.2286
 0.60000    1.70     1.70   0.17720  -12.2250
 0.55000    1.70     1.70   0.17836  -12.2206
 0.50000    1.70     1.70   0.18166  -12.2185
 0.45000    1.70     1.70   0.18374  -12.2193
 0.40000    1.70     1.70   0.18588  -12.2253
 0.35000    1.70     1.70   0.18691  -12.2294
 0.30000    1.70     1.70   0.18879  -12.2368
 0.25000    1.70     1.70   0.18956  -12.2426
 0.20000    1.70     1.70   0.18950  -12.2492
 0.15000    1.70     1.70   0.18980  -12.2545
 0.10000    1.70     1.70   0.18936  -12.2598
 0.05000    1.70     1.70   0.19027  -12.2640
 -0.00000    1.70     1.70   0.18948  -12.2651
