 Field[T] Tsmpl[K] Tcntr[K] Signal
 0.00000    1.83     1.85   8.12280
 0.05000    1.83     1.85   8.11410
 0.10000    1.83     1.85   8.11250
 0.15000    1.83     1.85   8.11070
 0.20000    1.83     1.85   8.09870
 0.25000    1.83     1.85   8.09310
 0.30000    1.83     1.85   8.08470
 0.35000    1.83     1.85   8.07120
 0.40000    1.83     1.85   8.06910
 0.45000    1.83     1.85   8.05710
 0.50000    1.82     1.85   8.05110
 0.55000    1.82     1.85   8.02710
 0.60000    1.82     1.85   8.02030
 0.65000    1.82     1.85   8.01860
 0.70000    1.82     1.85   8.01500
 0.75000    1.82     1.85   8.01450
 0.80000    1.82     1.85   8.00650
 0.85000    1.82     1.85   8.00340
 0.90000    1.82     1.85   7.99970
 0.95000    1.82     1.85   7.99300
 1.00000    1.82     1.85   7.98780
 1.05000    1.82     1.85   7.98220
 1.10000    1.82     1.85   7.97750
 1.15000    1.82     1.85   7.96930
 1.20000    1.82     1.84   7.96540
 1.25000    1.82     1.84   7.96450
 1.30000    1.82     1.84   7.96180
 1.35000    1.82     1.84   7.96700
 1.40000    1.83     1.84   7.97230
 1.45000    1.83     1.85   7.97920
 1.50000    1.83     1.85   7.98400
 1.55000    1.83     1.85   7.97620
 1.60000    1.83     1.85   7.97780
 1.65000    1.83     1.85   7.97170
 1.70000    1.83     1.85   7.97550
 1.75000    1.83     1.85   7.98270
 1.80000    1.83     1.85   7.97980
 1.85000    1.83     1.85   7.97920
 1.90000    1.83     1.85   7.97400
 1.95000    1.83     1.85   7.96690
 2.00000    1.83     1.85   7.95810
 2.05000    1.83     1.85   7.94860
 2.10000    1.83     1.85   7.95020
 2.15000    1.83     1.85   7.94630
 2.20000    1.83     1.85   7.95210
 2.25000    1.83     1.85   7.94690
 2.30000    1.83     1.85   7.94660
 2.35000    1.83     1.85   7.94850
 2.40000    1.83     1.85   7.94500
 2.45000    1.84     1.85   7.93180
 2.50000    1.84     1.85   7.91320
 2.55000    1.84     1.85   7.89800
 2.60000    1.84     1.85   7.89900
 2.65000    1.84     1.85   7.88510
 2.70000    1.84     1.85   7.88180
 2.75000    1.84     1.85   7.88280
 2.80000    1.84     1.85   7.87590
 2.85000    1.84     1.85   7.87220
 2.90000    1.84     1.85   7.86780
 2.95000    1.84     1.86   7.86490
 3.00000    1.84     1.86   7.86810
 3.05000    1.84     1.86   7.86460
 3.10000    1.84     1.86   7.85780
 3.15000    1.84     1.86   7.85380
 3.20000    1.84     1.86   7.85110
 3.25000    1.84     1.86   7.83960
 3.30000    1.84     1.86   7.83240
 3.35000    1.84     1.86   7.82610
 3.40000    1.84     1.86   7.81910
 3.45000    1.84     1.86   7.81060
 3.50000    1.84     1.86   7.80730
 3.55000    1.85     1.86   7.80230
 3.60000    1.85     1.86   7.79440
 3.65000    1.85     1.86   7.79170
 3.70000    1.85     1.86   7.78920
 3.75000    1.85     1.86   7.77670
 3.80000    1.85     1.86   7.76870
 3.85000    1.85     1.87   7.76070
 3.90000    1.85     1.87   7.75450
 3.95000    1.85     1.87   7.74660
 4.00000    1.85     1.87   7.74360
 4.05000    1.85     1.87   7.73790
 4.10000    1.85     1.87   7.73770
 4.15000    1.85     1.87   7.72660
 4.20000    1.85     1.87   7.71890
 4.25000    1.85     1.87   7.70670
 4.30000    1.85     1.87   7.70080
 4.35000    1.85     1.87   7.69630
 4.40000    1.85     1.87   7.69000
 4.45000    1.85     1.87   7.68730
 4.50000    1.85     1.87   7.68020
 4.55000    1.85     1.87   7.67000
 4.60000    1.85     1.87   7.66060
 4.65000    1.85     1.87   7.65170
 4.70000    1.85     1.87   7.64700
 4.75000    1.85     1.87   7.64530
 4.80000    1.85     1.87   7.63490
 4.85000    1.85     1.87   7.62910
 4.90000    1.86     1.87   7.61710
 4.95000    1.86     1.88   7.61340
 5.00000    1.86     1.88   7.60490
 5.05000    1.86     1.88   7.60490
 5.10000    1.86     1.88   7.60810
 5.15000    1.86     1.88   7.60390
 5.20000    1.86     1.88   7.59620
 5.25000    1.86     1.88   7.58920
 5.30000    1.86     1.88   7.58270
 5.35000    1.86     1.88   7.57970
 5.40000    1.86     1.88   7.57270
 5.45000    1.86     1.88   7.56650
 5.50000    1.86     1.88   7.56490
 5.55000    1.86     1.88   7.56050
 5.60000    1.86     1.88   7.55030
 5.65000    1.86     1.88   7.54480
 5.70000    1.86     1.88   7.53990
 5.75000    1.86     1.88   7.52920
 5.80000    1.86     1.88   7.52610
 5.85000    1.86     1.88   7.52250
 5.90000    1.86     1.88   7.52100
 5.95000    1.86     1.88   7.51610
 6.00000    1.86     1.88   7.51460
 6.05000    1.86     1.88   7.50570
 6.10000    1.86     1.88   7.49630
 6.15000    1.86     1.88   7.48480
 6.20000    1.86     1.88   7.48010
 6.25000    1.86     1.88   7.47930
 6.30000    1.86     1.89   7.47490
 6.35000    1.86     1.89   7.47200
 6.40000    1.86     1.89   7.46840
 6.45000    1.86     1.89   7.46320
 6.50000    1.86     1.89   7.45780
 6.55000    1.86     1.89   7.45540
 6.60000    1.86     1.89   7.45040
 6.65000    1.86     1.89   7.44450
 6.70000    1.87     1.89   7.44250
 6.75000    1.87     1.89   7.43860
 6.80000    1.87     1.89   7.44000
 6.85000    1.87     1.89   7.43590
 6.90000    1.87     1.89   7.43100
 6.95000    1.87     1.89   7.42940
 7.00000    1.87     1.89   7.42770
