 Field[T] Tsmpl[K] Tcntr[K] Signal
 0.00000    1.85     1.87   5.73460
 0.05000    1.85     1.87   5.73620
 0.10000    1.85     1.87   5.74100
 0.15000    1.85     1.87   5.73480
 0.20000    1.85     1.87   5.72830
 0.25000    1.85     1.87   5.72890
 0.30000    1.85     1.87   5.72800
 0.35000    1.85     1.87   5.72670
 0.40000    1.85     1.87   5.73480
 0.45000    1.85     1.87   5.73040
 0.50000    1.85     1.87   5.73290
 0.55000    1.85     1.87   5.73260
 0.60000    1.85     1.87   5.73200
 0.65000    1.85     1.87   5.73480
 0.70000    1.85     1.87   5.73610
 0.75000    1.85     1.87   5.73870
 0.80000    1.85     1.87   5.73550
 0.85000    1.85     1.87   5.73970
 0.90000    1.85     1.87   5.73950
 0.95000    1.85     1.87   5.74180
 1.00000    1.85     1.87   5.74480
 1.05000    1.85     1.87   5.74320
 1.10000    1.85     1.87   5.74620
 1.15000    1.85     1.87   5.75070
 1.20000    1.85     1.87   5.75790
 1.25000    1.85     1.87   5.75200
 1.30000    1.85     1.87   5.75320
 1.35000    1.85     1.87   5.75930
 1.40000    1.85     1.87   5.76050
 1.45000    1.85     1.87   5.75660
 1.50000    1.85     1.87   5.76270
 1.55000    1.85     1.88   5.75690
 1.60000    1.85     1.88   5.75850
 1.65000    1.85     1.88   5.76270
 1.70000    1.86     1.88   5.76360
 1.75000    1.86     1.88   5.76800
 1.80000    1.86     1.88   5.75780
 1.85000    1.86     1.88   5.76200
 1.90000    1.86     1.88   5.75660
 1.95000    1.86     1.88   5.75940
 2.00000    1.86     1.88   5.76830
 2.05000    1.86     1.88   5.77240
 2.10000    1.86     1.88   5.78030
 2.15000    1.86     1.88   5.77960
 2.20000    1.86     1.88   5.78020
 2.25000    1.86     1.88   5.77500
 2.30000    1.86     1.88   5.77390
 2.35000    1.86     1.88   5.77530
 2.40000    1.86     1.88   5.77350
 2.45000    1.86     1.88   5.77660
 2.50000    1.86     1.88   5.77930
 2.55000    1.86     1.88   5.77990
 2.60000    1.86     1.88   5.77860
 2.65000    1.86     1.88   5.77570
 2.70000    1.87     1.88   5.77030
 2.75000    1.87     1.88   5.76420
 2.80000    1.87     1.88   5.75430
 2.85000    1.87     1.88   5.75070
 2.90000    1.87     1.88   5.75800
 2.95000    1.87     1.88   5.75220
 3.00000    1.87     1.88   5.75240
 3.05000    1.87     1.89   5.75370
 3.10000    1.87     1.89   5.75290
 3.15000    1.87     1.89   5.75340
 3.20000    1.87     1.89   5.75400
 3.25000    1.87     1.89   5.75740
 3.30000    1.87     1.89   5.75830
 3.35000    1.87     1.89   5.75760
 3.40000    1.87     1.89   5.75440
 3.45000    1.87     1.89   5.75850
 3.50000    1.87     1.89   5.76960
 3.55000    1.87     1.89   5.76800
 3.60000    1.87     1.89   5.76570
 3.65000    1.87     1.89   5.75940
 3.70000    1.87     1.89   5.76280
 3.75000    1.88     1.89   5.76380
 3.80000    1.88     1.89   5.76470
 3.85000    1.88     1.89   5.76640
 3.90000    1.88     1.89   5.76630
 3.95000    1.88     1.89   5.76380
 4.00000    1.88     1.90   5.76100
 4.05000    1.88     1.90   5.75770
 4.10000    1.88     1.90   5.75940
 4.15000    1.88     1.90   5.75890
 4.20000    1.88     1.90   5.75580
 4.25000    1.88     1.90   5.75370
 4.30000    1.88     1.90   5.75250
 4.35000    1.88     1.90   5.75260
 4.40000    1.88     1.90   5.75160
 4.45000    1.88     1.90   5.74900
 4.50000    1.88     1.90   5.74180
 4.55000    1.88     1.90   5.73670
 4.60000    1.88     1.90   5.73340
 4.65000    1.88     1.90   5.73880
 4.70000    1.88     1.90   5.72160
 4.75000    1.88     1.90   5.72440
 4.80000    1.88     1.90   5.72480
 4.85000    1.88     1.90   5.72390
 4.90000    1.88     1.90   5.72180
 4.95000    1.88     1.90   5.72640
 5.00000    1.88     1.91   5.71550
 5.00000    1.88     1.91   5.71790
 4.95000    1.88     1.91   5.72570
 4.90000    1.88     1.91   5.72670
 4.85000    1.88     1.91   5.72440
 4.80000    1.88     1.91   5.72870
 4.75000    1.88     1.91   5.72870
 4.70000    1.88     1.91   5.73290
 4.65000    1.88     1.91   5.73300
 4.60000    1.88     1.91   5.73500
 4.55000    1.88     1.91   5.73930
 4.50000    1.88     1.91   5.74650
 4.45000    1.88     1.91   5.74670
 4.40000    1.88     1.91   5.74220
 4.35000    1.88     1.90   5.74310
 4.30000    1.88     1.90   5.74860
 4.25000    1.88     1.90   5.74770
 4.20000    1.88     1.90   5.74410
 4.15000    1.88     1.90   5.75020
 4.10000    1.88     1.90   5.74810
 4.05000    1.88     1.90   5.75460
 4.00000    1.88     1.90   5.75670
 3.95000    1.88     1.90   5.76000
 3.90000    1.88     1.90   5.76010
 3.85000    1.88     1.90   5.75670
 3.80000    1.88     1.90   5.75400
 3.75000    1.88     1.90   5.75460
 3.70000    1.88     1.90   5.76310
 3.65000    1.88     1.90   5.76120
 3.60000    1.88     1.90   5.76590
 3.55000    1.88     1.90   5.76320
 3.50000    1.88     1.90   5.76040
 3.45000    1.88     1.90   5.75760
 3.40000    1.88     1.89   5.75400
 3.35000    1.88     1.89   5.74890
 3.30000    1.88     1.89   5.75140
 3.25000    1.88     1.89   5.75240
 3.20000    1.87     1.89   5.74830
 3.15000    1.87     1.89   5.74280
 3.10000    1.87     1.89   5.74600
 3.05000    1.87     1.89   5.74520
 3.00000    1.87     1.89   5.74270
 2.95000    1.87     1.89   5.74370
 2.90000    1.87     1.89   5.75080
 2.85000    1.87     1.89   5.75500
 2.80000    1.87     1.89   5.75630
 2.75000    1.87     1.89   5.75990
 2.70000    1.87     1.89   5.75690
 2.65000    1.87     1.89   5.76790
 2.60000    1.87     1.89   5.77930
 2.55000    1.87     1.89   5.77730
 2.50000    1.87     1.89   5.78140
 2.45000    1.87     1.89   5.78320
 2.40000    1.87     1.89   5.77440
 2.35000    1.87     1.89   5.77870
 2.30000    1.87     1.89   5.77520
 2.25000    1.87     1.89   5.78380
 2.20000    1.86     1.88   5.77270
 2.15000    1.86     1.88   5.77930
 2.10000    1.86     1.88   5.77380
 2.05000    1.86     1.88   5.77830
 2.00000    1.86     1.88   5.77290
 1.95000    1.86     1.88   5.76890
 1.90000    1.86     1.88   5.76730
 1.85000    1.86     1.88   5.76450
 1.80000    1.86     1.88   5.76540
 1.75000    1.86     1.88   5.76180
 1.70000    1.86     1.88   5.76460
 1.65000    1.86     1.88   5.76870
 1.60000    1.86     1.88   5.76600
 1.55000    1.86     1.88   5.75750
 1.50000    1.86     1.88   5.76360
 1.45000    1.86     1.88   5.76380
 1.40000    1.86     1.88   5.76470
 1.35000    1.86     1.88   5.76250
 1.30000    1.86     1.88   5.75860
 1.25000    1.86     1.88   5.75610
 1.20000    1.86     1.88   5.76460
 1.15000    1.85     1.88   5.75550
 1.10000    1.85     1.88   5.75110
 1.05000    1.85     1.88   5.75650
 1.00000    1.85     1.88   5.75060
 0.95000    1.85     1.88   5.75150
 0.90000    1.85     1.88   5.74780
 0.85000    1.85     1.88   5.74390
 0.80000    1.85     1.88   5.74130
 0.75000    1.85     1.88   5.75200
 0.70000    1.85     1.88   5.74240
 0.65000    1.85     1.88   5.73730
 0.60000    1.85     1.88   5.74220
 0.55000    1.85     1.88   5.73830
 0.50000    1.85     1.88   5.74330
 0.45000    1.85     1.88   5.73890
 0.40000    1.85     1.88   5.74000
 0.35000    1.85     1.88   5.74620
 0.30000    1.85     1.88   5.74430
 0.25000    1.85     1.88   5.73940
 0.20000    1.85     1.88   5.73870
 0.15000    1.85     1.88   5.74560
 0.10000    1.85     1.88   5.73680
 0.05000    1.85     1.88   5.73690
-0.00000    1.85     1.88   5.73520
