 Field[T] Tsmpl[K] Tcntr[K] Signal
 0.00000    1.84     1.87   5.95050
 0.05000    1.84     1.87   5.93180
 0.10000    1.84     1.87   5.91570
 0.15000    1.84     1.87   5.89790
 0.20000    1.84     1.87   5.88350
 0.25000    1.84     1.87   5.87380
 0.30000    1.84     1.87   5.86570
 0.35000    1.84     1.87   5.85490
 0.40000    1.84     1.87   5.84960
 0.45000    1.84     1.87   5.84040
 0.50000    1.84     1.87   5.83460
 0.55000    1.84     1.87   5.82970
 0.60000    1.84     1.87   5.82380
 0.65000    1.84     1.87   5.81290
 0.70000    1.84     1.87   5.80350
 0.75000    1.84     1.87   5.79590
 0.80000    1.84     1.87   5.79050
 0.85000    1.84     1.87   5.78980
 0.90000    1.84     1.87   5.78520
 0.95000    1.84     1.87   5.78280
 1.00000    1.84     1.87   5.78830
 1.05000    1.84     1.87   5.78040
 1.10000    1.84     1.87   5.77450
 1.15000    1.85     1.87   5.77250
 1.20000    1.85     1.87   5.77390
 1.25000    1.85     1.87   5.77280
 1.30000    1.85     1.87   5.77350
 1.35000    1.85     1.87   5.77200
 1.40000    1.85     1.87   5.77290
 1.45000    1.85     1.87   5.77590
 1.50000    1.85     1.87   5.77790
 1.55000    1.85     1.87   5.77820
 1.60000    1.85     1.87   5.77620
 1.65000    1.85     1.87   5.78170
 1.70000    1.85     1.87   5.78160
 1.75000    1.85     1.87   5.77810
 1.80000    1.85     1.87   5.77920
 1.85000    1.85     1.87   5.78610
 1.90000    1.85     1.87   5.79110
 1.95000    1.85     1.87   5.78570
 2.00000    1.85     1.87   5.78390
 2.05000    1.85     1.87   5.78540
 2.10000    1.85     1.88   5.78660
 2.15000    1.85     1.88   5.78900
 2.20000    1.86     1.88   5.78960
 2.25000    1.86     1.88   5.78750
 2.30000    1.86     1.88   5.78870
 2.35000    1.86     1.88   5.78920
 2.40000    1.86     1.88   5.79220
 2.45000    1.86     1.88   5.79150
 2.50000    1.86     1.88   5.78950
 2.55000    1.86     1.88   5.79240
 2.60000    1.86     1.88   5.79050
 2.65000    1.86     1.88   5.78470
 2.70000    1.86     1.88   5.78560
 2.75000    1.86     1.88   5.78120
 2.80000    1.86     1.88   5.77590
 2.85000    1.86     1.88   5.77000
 2.90000    1.86     1.88   5.77130
 2.95000    1.86     1.88   5.77200
 3.00000    1.86     1.88   5.76860
 3.05000    1.86     1.88   5.76620
 3.10000    1.87     1.89   5.77000
 3.15000    1.87     1.89   5.77090
 3.20000    1.87     1.89   5.77570
 3.25000    1.87     1.89   5.77920
 3.30000    1.87     1.89   5.78280
 3.35000    1.87     1.89   5.79060
 3.40000    1.87     1.89   5.78840
 3.45000    1.87     1.89   5.79130
 3.50000    1.87     1.89   5.79230
 3.55000    1.87     1.89   5.79280
 3.60000    1.87     1.89   5.79330
 3.65000    1.87     1.89   5.79810
 3.70000    1.87     1.89   5.80500
 3.75000    1.87     1.89   5.80180
 3.80000    1.87     1.89   5.79860
 3.85000    1.87     1.89   5.80330
 3.90000    1.87     1.89   5.79780
 3.95000    1.87     1.89   5.80130
 4.00000    1.87     1.89   5.79630
 4.05000    1.87     1.89   5.79920
 4.10000    1.87     1.89   5.79920
 4.15000    1.87     1.90   5.80380
 4.20000    1.87     1.90   5.81020
 4.25000    1.88     1.90   5.80570
 4.30000    1.88     1.90   5.80330
 4.35000    1.88     1.90   5.79900
 4.40000    1.88     1.90   5.79920
 4.45000    1.88     1.90   5.79960
 4.50000    1.88     1.90   5.79440
 4.55000    1.88     1.90   5.79710
 4.60000    1.88     1.90   5.80490
 4.65000    1.88     1.90   5.80710
 4.70000    1.88     1.90   5.80350
 4.75000    1.88     1.90   5.79810
 4.80000    1.88     1.90   5.79580
 4.85000    1.88     1.90   5.80150
 4.90000    1.88     1.90   5.79620
 4.95000    1.88     1.90   5.79080
 5.00000    1.88     1.90   5.78310
 5.05000    1.88     1.90   5.78190
 5.10000    1.88     1.90   5.77560
 5.15000    1.88     1.90   5.77080
 5.20000    1.88     1.90   5.77020
 5.25000    1.88     1.90   5.76860
 5.30000    1.88     1.90   5.76740
 5.35000    1.88     1.91   5.76600
 5.40000    1.88     1.91   5.76200
 5.45000    1.88     1.91   5.76610
 5.50000    1.88     1.91   5.76740
 5.55000    1.88     1.91   5.76180
 5.60000    1.88     1.91   5.75430
 5.65000    1.88     1.91   5.75010
 5.70000    1.88     1.91   5.75180
 5.75000    1.88     1.91   5.74750
 5.80000    1.88     1.91   5.74610
 5.85000    1.88     1.91   5.74450
 5.90000    1.88     1.91   5.74210
 5.95000    1.88     1.91   5.74320
 6.00000    1.88     1.91   5.74730
 6.05000    1.88     1.91   5.74410
 6.10000    1.88     1.91   5.74230
 6.15000    1.88     1.91   5.73550
 6.20000    1.89     1.91   5.73220
 6.25000    1.89     1.91   5.73030
 6.30000    1.89     1.91   5.72470
 6.35000    1.89     1.91   5.71770
 6.40000    1.89     1.92   5.71530
 6.45000    1.89     1.92   5.71120
 6.50000    1.89     1.92   5.70920
 6.55000    1.89     1.92   5.71010
 6.60000    1.89     1.92   5.70950
 6.65000    1.89     1.92   5.70810
 6.70000    1.89     1.92   5.70610
 6.75000    1.89     1.92   5.69880
 6.80000    1.89     1.92   5.69250
 6.85000    1.89     1.92   5.69130
 6.90000    1.89     1.92   5.69070
 6.95000    1.89     1.92   5.68930
 7.00000    1.89     1.92   5.68490
 7.00000    1.89     1.92   5.68480
 6.95000    1.89     1.92   5.68940
 6.90000    1.89     1.92   5.69130
 6.85000    1.89     1.92   5.69510
 6.80000    1.89     1.92   5.70460
 6.75000    1.89     1.92   5.70850
 6.70000    1.89     1.92   5.71230
 6.65000    1.89     1.92   5.72200
 6.60000    1.89     1.92   5.72120
 6.55000    1.89     1.92   5.71780
 6.50000    1.89     1.92   5.71980
 6.45000    1.89     1.92   5.72300
 6.40000    1.89     1.92   5.72390
 6.35000    1.89     1.92   5.72830
 6.30000    1.89     1.92   5.73040
 6.25000    1.89     1.92   5.73000
 6.20000    1.89     1.92   5.73430
 6.15000    1.89     1.92   5.73960
 6.10000    1.89     1.92   5.74300
 6.05000    1.89     1.92   5.74750
 6.00000    1.89     1.92   5.75640
 5.95000    1.89     1.92   5.76170
 5.90000    1.89     1.92   5.76480
 5.85000    1.89     1.92   5.76790
 5.80000    1.89     1.92   5.77280
 5.75000    1.89     1.92   5.77710
 5.70000    1.89     1.92   5.78400
 5.65000    1.89     1.92   5.78190
 5.60000    1.89     1.92   5.77990
 5.55000    1.89     1.92   5.78040
 5.50000    1.89     1.92   5.78060
 5.45000    1.89     1.92   5.77990
 5.40000    1.89     1.92   5.78290
 5.35000    1.89     1.92   5.78770
 5.30000    1.89     1.92   5.79010
 5.25000    1.89     1.92   5.79110
 5.20000    1.89     1.91   5.79780
 5.15000    1.89     1.91   5.80490
 5.10000    1.89     1.91   5.81140
 5.05000    1.89     1.91   5.80940
 5.00000    1.89     1.91   5.80940
 4.95000    1.89     1.91   5.81090
 4.90000    1.89     1.91   5.81430
 4.85000    1.89     1.91   5.81670
 4.80000    1.89     1.91   5.82200
 4.75000    1.89     1.91   5.82330
 4.70000    1.89     1.91   5.82940
 4.65000    1.89     1.91   5.83300
 4.60000    1.89     1.91   5.83500
 4.55000    1.89     1.91   5.82980
 4.50000    1.89     1.91   5.83080
 4.45000    1.89     1.91   5.83290
 4.40000    1.89     1.91   5.83220
 4.35000    1.89     1.91   5.83920
 4.30000    1.89     1.91   5.83750
 4.25000    1.89     1.91   5.83640
 4.20000    1.89     1.91   5.83620
 4.15000    1.89     1.91   5.83880
 4.10000    1.88     1.91   5.84490
 4.05000    1.88     1.91   5.84350
 4.00000    1.88     1.91   5.84780
 3.95000    1.88     1.91   5.84580
 3.90000    1.88     1.90   5.84690
 3.85000    1.88     1.90   5.84350
 3.80000    1.88     1.90   5.84360
 3.75000    1.88     1.90   5.84250
 3.70000    1.88     1.90   5.84310
 3.65000    1.88     1.90   5.83770
 3.60000    1.88     1.90   5.83760
 3.55000    1.88     1.90   5.84040
 3.50000    1.88     1.90   5.84170
 3.45000    1.88     1.90   5.84110
 3.40000    1.88     1.90   5.83710
 3.35000    1.88     1.90   5.83170
 3.30000    1.88     1.90   5.82960
 3.25000    1.88     1.90   5.82330
 3.20000    1.88     1.90   5.82350
 3.15000    1.88     1.90   5.82300
 3.10000    1.88     1.90   5.81670
 3.05000    1.88     1.90   5.81510
 3.00000    1.88     1.90   5.81890
 2.95000    1.88     1.90   5.82060
 2.90000    1.88     1.90   5.81360
 2.85000    1.88     1.90   5.80990
 2.80000    1.88     1.90   5.81250
 2.75000    1.87     1.89   5.81840
 2.70000    1.87     1.89   5.81970
 2.65000    1.87     1.89   5.82520
 2.60000    1.87     1.89   5.83140
 2.55000    1.87     1.89   5.83790
 2.50000    1.87     1.89   5.83880
 2.45000    1.87     1.89   5.83500
 2.40000    1.87     1.89   5.83350
 2.35000    1.87     1.89   5.82710
 2.30000    1.87     1.89   5.82270
 2.25000    1.87     1.89   5.82990
 2.20000    1.87     1.89   5.83210
 2.15000    1.87     1.89   5.83000
 2.10000    1.87     1.89   5.82470
 2.05000    1.87     1.89   5.82300
 2.00000    1.87     1.89   5.82790
 1.95000    1.87     1.89   5.83200
 1.90000    1.87     1.89   5.82970
 1.85000    1.86     1.89   5.82270
 1.80000    1.86     1.89   5.82020
 1.75000    1.86     1.88   5.81540
 1.70000    1.86     1.88   5.81550
 1.65000    1.86     1.88   5.80850
 1.60000    1.86     1.88   5.80640
 1.55000    1.86     1.88   5.80740
 1.50000    1.86     1.88   5.81070
 1.45000    1.86     1.88   5.81490
 1.40000    1.86     1.88   5.81510
 1.35000    1.86     1.88   5.80920
 1.30000    1.86     1.88   5.80720
 1.25000    1.86     1.88   5.79940
 1.20000    1.86     1.88   5.79660
 1.15000    1.86     1.88   5.79690
 1.10000    1.86     1.88   5.79770
 1.05000    1.86     1.88   5.79680
 1.00000    1.86     1.88   5.79600
 0.95000    1.85     1.88   5.79860
 0.90000    1.85     1.88   5.80400
 0.85000    1.85     1.88   5.79690
 0.80000    1.85     1.88   5.79720
 0.75000    1.85     1.88   5.79950
 0.70000    1.85     1.88   5.79940
 0.65000    1.85     1.88   5.79610
 0.60000    1.85     1.88   5.79070
 0.55000    1.85     1.88   5.78480
 0.50000    1.85     1.88   5.78220
 0.45000    1.85     1.88   5.78380
 0.40000    1.85     1.88   5.78200
 0.35000    1.85     1.88   5.78580
 0.30000    1.85     1.88   5.78660
 0.25000    1.85     1.88   5.79060
 0.20000    1.85     1.88   5.78800
 0.15000    1.85     1.88   5.78940
 0.10000    1.85     1.88   5.78820
 0.05000    1.85     1.88   5.78710
-0.00000    1.85     1.88   5.78400
