 Field[T] Tsmpl[K] Tcntr[K] Signal   Mirror[MM]
 0.00000    1.84     1.84   0.36147  -18.6865
 0.05000    1.84     1.84   0.36044  -18.6863
 0.10000    1.84     1.84   0.35962  -18.6860
 0.15000    1.84     1.84   0.35704  -18.6854
 0.20000    1.84     1.84   0.35133  -18.6840
 0.25000    1.84     1.84   0.34386  -18.6825
 0.30000    1.84     1.84   0.32693  -18.6828
 0.35000    1.84     1.84   0.31092  -18.6879
 0.40000    1.84     1.84   0.30278  -18.6978
 0.45000    1.84     1.84   0.30165  -18.7057
 0.50000    1.84     1.84   0.30335  -18.7123
 0.55000    1.84     1.84   0.30695  -18.7184
 0.60000    1.84     1.84   0.31009  -18.7235
 0.65000    1.84     1.84   0.31570  -18.7278
 0.70000    1.84     1.84   0.32193  -18.7312
 0.75000    1.84     1.84   0.32991  -18.7328
 0.80000    1.84     1.84   0.33650  -18.7341
 0.85000    1.84     1.84   0.34232  -18.7344
 0.90000    1.84     1.84   0.34690  -18.7343
 0.95000    1.84     1.84   0.35081  -18.7336
 1.00000    1.84     1.84   0.35344  -18.7332
 1.05000    1.84     1.84   0.35442  -18.7333
 1.10000    1.84     1.84   0.35673  -18.7329
 1.15000    1.84     1.84   0.35864  -18.7323
 1.20000    1.84     1.84   0.35895  -18.7319
 1.25000    1.84     1.84   0.36034  -18.7318
 1.30000    1.84     1.84   0.36167  -18.7311
 1.35000    1.84     1.84   0.36131  -18.7309
 1.40000    1.84     1.84   0.36183  -18.7309
 1.45000    1.84     1.84   0.36234  -18.7308
 1.50000    1.84     1.84   0.36322  -18.7304
 1.55000    1.84     1.84   0.36296  -18.7304
 1.60000    1.84     1.84   0.36337  -18.7304
 1.65000    1.84     1.84   0.36281  -18.7304
 1.70000    1.84     1.84   0.36348  -18.7296
 1.75000    1.84     1.84   0.36384  -18.7298
 1.80000    1.84     1.84   0.36420  -18.7300
 1.85000    1.84     1.84   0.36466  -18.7299
 1.90000    1.84     1.84   0.36409  -18.7299
 1.95000    1.84     1.84   0.36451  -18.7300
 2.00000    1.84     1.84   0.36430  -18.7298
 2.05000    1.84     1.84   0.36445  -18.7296
 2.10000    1.84     1.84   0.36487  -18.7295
 2.15000    1.84     1.84   0.36404  -18.7294
 2.20000    1.84     1.84   0.36497  -18.7296
 2.25000    1.84     1.84   0.36605  -18.7293
 2.30000    1.84     1.84   0.36451  -18.7292
 2.35000    1.84     1.84   0.36492  -18.7292
 2.40000    1.84     1.84   0.36451  -18.7292
 2.45000    1.84     1.84   0.36482  -18.7291
 2.50000    1.84     1.84   0.36430  -18.7288
 2.55000    1.84     1.84   0.36425  -18.7290
 2.60000    1.84     1.84   0.36456  -18.7291
 2.65000    1.84     1.84   0.36492  -18.7292
 2.70000    1.84     1.84   0.36435  -18.7288
 2.75000    1.84     1.84   0.36445  -18.7288
 2.80000    1.84     1.84   0.36379  -18.7290
 2.85000    1.84     1.84   0.36260  -18.7288
 2.90000    1.84     1.84   0.36404  -18.7289
 2.95000    1.84     1.84   0.36353  -18.7291
 3.00000    1.84     1.84   0.36394  -18.7287
 3.05000    1.84     1.84   0.36322  -18.7288
 3.10000    1.84     1.84   0.36399  -18.7291
 3.15000    1.84     1.84   0.36317  -18.7287
 3.20000    1.84     1.84   0.36353  -18.7285
 3.25000    1.84     1.84   0.36327  -18.7283
 3.30000    1.84     1.84   0.36337  -18.7281
 3.35000    1.84     1.84   0.36363  -18.7284
 3.40000    1.84     1.84   0.36255  -18.7282
 3.45000    1.84     1.84   0.36291  -18.7284
 3.50000    1.84     1.84   0.36301  -18.7285
 3.55000    1.84     1.84   0.36250  -18.7283
 3.60000    1.84     1.84   0.36229  -18.7281
 3.65000    1.84     1.84   0.36188  -18.7281
 3.70000    1.84     1.84   0.36157  -18.7281
 3.75000    1.84     1.84   0.36147  -18.7283
 3.80000    1.84     1.84   0.36126  -18.7282
 3.85000    1.84     1.84   0.36173  -18.7283
 3.90000    1.84     1.84   0.36080  -18.7283
 3.95000    1.84     1.84   0.36090  -18.7283
 4.00000    1.84     1.84   0.36152  -18.7282
 4.05000    1.84     1.84   0.36101  -18.7281
 4.10000    1.84     1.84   0.36126  -18.7281
 4.15000    1.84     1.84   0.36075  -18.7284
 4.20000    1.84     1.84   0.35920  -18.7276
 4.25000    1.84     1.84   0.36054  -18.7275
 4.30000    1.84     1.84   0.36147  -18.7275
 4.35000    1.84     1.84   0.36095  -18.7273
 4.40000    1.84     1.84   0.36101  -18.7276
 4.45000    1.84     1.84   0.36116  -18.7275
 4.50000    1.84     1.84   0.36142  -18.7275
 4.55000    1.84     1.84   0.36095  -18.7274
 4.60000    1.84     1.84   0.36080  -18.7273
 4.65000    1.84     1.84   0.36142  -18.7275
 4.70000    1.84     1.84   0.35962  -18.7272
 4.75000    1.84     1.84   0.36013  -18.7276
 4.80000    1.84     1.84   0.35936  -18.7276
 4.85000    1.84     1.84   0.36054  -18.7277
 4.90000    1.84     1.84   0.35962  -18.7277
 4.95000    1.84     1.84   0.35895  -18.7281
 5.00000    1.84     1.84   0.36008  -18.7278
 5.05000    1.84     1.84   0.35931  -18.7280
 5.10000    1.84     1.84   0.35915  -18.7280
 5.15000    1.84     1.84   0.35905  -18.7275
 5.20000    1.84     1.84   0.35889  -18.7274
 5.25000    1.84     1.84   0.35781  -18.7275
 5.30000    1.84     1.84   0.35787  -18.7274
 5.35000    1.84     1.84   0.35802  -18.7274
 5.40000    1.84     1.84   0.35817  -18.7273
 5.45000    1.84     1.84   0.35838  -18.7269
 5.50000    1.84     1.84   0.35761  -18.7271
 5.55000    1.84     1.84   0.35684  -18.7273
 5.60000    1.84     1.84   0.35766  -18.7270
 5.65000    1.84     1.84   0.35704  -18.7272
 5.70000    1.84     1.84   0.35704  -18.7273
 5.75000    1.84     1.84   0.35714  -18.7271
 5.80000    1.84     1.84   0.35668  -18.7272
 5.85000    1.84     1.84   0.35575  -18.7275
 5.90000    1.84     1.84   0.35663  -18.7274
 5.95000    1.84     1.84   0.35637  -18.7274
 6.00000    1.84     1.84   0.35596  -18.7271
 6.05000    1.84     1.84   0.35586  -18.7274
 6.10000    1.84     1.84   0.35611  -18.7273
 6.15000    1.84     1.84   0.35529  -18.7272
 6.20000    1.84     1.84   0.35529  -18.7271
 6.25000    1.84     1.84   0.35534  -18.7268
 6.30000    1.84     1.84   0.35539  -18.7273
 6.35000    1.84     1.84   0.35509  -18.7271
 6.40000    1.84     1.84   0.35462  -18.7272
 6.45000    1.84     1.84   0.35478  -18.7272
 6.50000    1.84     1.84   0.35447  -18.7271
 6.55000    1.84     1.84   0.35416  -18.7272
 6.60000    1.84     1.84   0.35395  -18.7272
 6.65000    1.84     1.84   0.35370  -18.7272
 6.70000    1.84     1.84   0.35370  -18.7271
 6.75000    1.84     1.84   0.35400  -18.7269
 6.80000    1.84     1.84   0.35344  -18.7269
 6.85000    1.84     1.84   0.35292  -18.7269
 6.90000    1.84     1.84   0.35287  -18.7269
 6.95000    1.84     1.84   0.35292  -18.7273
 7.00000    1.84     1.84   0.35174  -18.7273
 7.00000    1.84     1.84   0.35241  -18.7271
 6.95000    1.84     1.84   0.35246  -18.7270
 6.90000    1.84     1.84   0.35292  -18.7266
 6.85000    1.84     1.84   0.35328  -18.7267
 6.80000    1.84     1.84   0.35318  -18.7267
 6.75000    1.84     1.84   0.35344  -18.7268
 6.70000    1.84     1.84   0.35385  -18.7267
 6.65000    1.84     1.84   0.35375  -18.7267
 6.60000    1.84     1.84   0.35370  -18.7269
 6.55000    1.84     1.84   0.35390  -18.7267
 6.50000    1.84     1.84   0.35354  -18.7266
 6.45000    1.84     1.84   0.35503  -18.7267
 6.40000    1.84     1.84   0.35406  -18.7268
 6.35000    1.84     1.84   0.35452  -18.7266
 6.30000    1.84     1.84   0.35519  -18.7268
 6.25000    1.84     1.84   0.35498  -18.7266
 6.20000    1.84     1.84   0.35457  -18.7267
 6.15000    1.84     1.84   0.35586  -18.7268
 6.10000    1.84     1.84   0.35478  -18.7268
 6.05000    1.84     1.84   0.35364  -18.7251
 6.00000    1.84     1.84   0.35231  -18.7254
 5.95000    1.84     1.84   0.35514  -18.7262
 5.90000    1.84     1.84   0.35586  -18.7267
 5.85000    1.84     1.84   0.35673  -18.7269
 5.80000    1.84     1.84   0.35684  -18.7273
 5.75000    1.84     1.84   0.35663  -18.7265
 5.70000    1.84     1.84   0.35745  -18.7258
 5.65000    1.84     1.84   0.35812  -18.7264
 5.60000    1.84     1.84   0.35884  -18.7263
 5.55000    1.84     1.84   0.35781  -18.7259
 5.50000    1.84     1.84   0.35864  -18.7264
 5.45000    1.84     1.84   0.35838  -18.7263
 5.40000    1.84     1.84   0.35931  -18.7267
 5.35000    1.84     1.84   0.35869  -18.7270
 5.30000    1.84     1.84   0.35977  -18.7270
 5.25000    1.84     1.84   0.35987  -18.7272
 5.20000    1.84     1.84   0.35956  -18.7276
 5.15000    1.84     1.84   0.36028  -18.7274
 5.10000    1.84     1.84   0.35915  -18.7274
 5.05000    1.84     1.84   0.36008  -18.7273
 5.00000    1.84     1.84   0.36013  -18.7275
 4.95000    1.84     1.84   0.36013  -18.7274
 4.90000    1.84     1.84   0.36028  -18.7274
 4.85000    1.84     1.84   0.36013  -18.7272
 4.80000    1.84     1.84   0.36049  -18.7276
 4.75000    1.84     1.84   0.36080  -18.7276
 4.70000    1.84     1.84   0.36059  -18.7276
 4.65000    1.84     1.84   0.36126  -18.7277
 4.60000    1.84     1.84   0.36070  -18.7278
 4.55000    1.84     1.84   0.36070  -18.7279
 4.50000    1.84     1.84   0.36137  -18.7280
 4.45000    1.84     1.84   0.36116  -18.7276
 4.40000    1.84     1.84   0.36167  -18.7277
 4.35000    1.84     1.84   0.36090  -18.7278
 4.30000    1.84     1.84   0.36240  -18.7277
 4.25000    1.84     1.84   0.36198  -18.7280
 4.20000    1.84     1.84   0.36219  -18.7278
 4.15000    1.84     1.84   0.36142  -18.7277
 4.10000    1.84     1.84   0.36188  -18.7279
 4.05000    1.84     1.84   0.36224  -18.7277
 4.00000    1.84     1.84   0.36219  -18.7280
 3.95000    1.84     1.84   0.36245  -18.7280
 3.90000    1.84     1.84   0.36229  -18.7279
 3.85000    1.84     1.84   0.36173  -18.7281
 3.80000    1.84     1.84   0.36255  -18.7278
 3.75000    1.84     1.84   0.36312  -18.7278
 3.70000    1.84     1.84   0.36312  -18.7277
 3.65000    1.84     1.84   0.36260  -18.7277
 3.60000    1.84     1.84   0.36337  -18.7279
 3.55000    1.84     1.84   0.36306  -18.7279
 3.50000    1.84     1.84   0.36358  -18.7281
 3.45000    1.84     1.84   0.36322  -18.7281
 3.40000    1.84     1.84   0.36327  -18.7282
 3.35000    1.84     1.84   0.36317  -18.7277
 3.30000    1.84     1.84   0.36322  -18.7277
 3.25000    1.84     1.84   0.36343  -18.7277
 3.20000    1.84     1.84   0.36368  -18.7280
 3.15000    1.84     1.84   0.36332  -18.7281
 3.10000    1.84     1.84   0.36296  -18.7280
 3.05000    1.84     1.84   0.36373  -18.7280
 3.00000    1.84     1.84   0.36343  -18.7279
 2.95000    1.84     1.84   0.36322  -18.7278
 2.90000    1.84     1.84   0.36440  -18.7279
 2.85000    1.84     1.84   0.36353  -18.7278
 2.80000    1.84     1.84   0.36404  -18.7279
 2.75000    1.84     1.84   0.36332  -18.7280
 2.70000    1.84     1.84   0.36404  -18.7281
 2.65000    1.84     1.84   0.36389  -18.7281
 2.60000    1.84     1.84   0.36358  -18.7282
 2.55000    1.84     1.84   0.36389  -18.7281
 2.50000    1.84     1.84   0.36363  -18.7280
 2.45000    1.84     1.84   0.36399  -18.7280
 2.40000    1.84     1.84   0.36409  -18.7280
 2.35000    1.84     1.84   0.36368  -18.7281
 2.30000    1.84     1.84   0.36425  -18.7281
 2.25000    1.84     1.84   0.36502  -18.7282
 2.20000    1.84     1.84   0.36363  -18.7281
 2.15000    1.84     1.84   0.36404  -18.7281
 2.10000    1.84     1.84   0.36358  -18.7281
 2.05000    1.84     1.84   0.36379  -18.7281
 2.00000    1.84     1.84   0.36389  -18.7281
 1.95000    1.84     1.84   0.36301  -18.7283
 1.90000    1.84     1.84   0.36348  -18.7282
 1.85000    1.84     1.84   0.36281  -18.7282
 1.80000    1.84     1.84   0.36332  -18.7284
 1.75000    1.84     1.84   0.36255  -18.7281
 1.70000    1.84     1.84   0.36209  -18.7282
 1.65000    1.84     1.84   0.36245  -18.7285
 1.60000    1.84     1.84   0.36204  -18.7286
 1.55000    1.84     1.84   0.36183  -18.7285
 1.50000    1.84     1.84   0.36173  -18.7287
 1.45000    1.84     1.84   0.36095  -18.7284
 1.40000    1.84     1.84   0.36028  -18.7287
 1.35000    1.84     1.84   0.35992  -18.7288
 1.30000    1.84     1.84   0.36034  -18.7291
 1.25000    1.84     1.84   0.35931  -18.7293
 1.20000    1.84     1.84   0.35781  -18.7293
 1.15000    1.84     1.84   0.35622  -18.7295
 1.10000    1.84     1.84   0.35550  -18.7297
 1.05000    1.84     1.84   0.35308  -18.7300
 1.00000    1.84     1.84   0.35107  -18.7305
 0.95000    1.84     1.84   0.34870  -18.7309
 0.90000    1.84     1.84   0.34510  -18.7313
 0.85000    1.84     1.84   0.34021  -18.7315
 0.80000    1.84     1.84   0.33475  -18.7311
 0.75000    1.84     1.84   0.32739  -18.7298
 0.70000    1.84     1.84   0.32013  -18.7278
 0.65000    1.84     1.84   0.31436  -18.7243
 0.60000    1.84     1.84   0.30880  -18.7201
 0.55000    1.84     1.84   0.30381  -18.7154
 0.50000    1.84     1.84   0.30052  -18.7097
 0.45000    1.84     1.84   0.29820  -18.7033
 0.40000    1.84     1.84   0.29933  -18.6955
 0.35000    1.84     1.84   0.30391  -18.6858
 0.30000    1.84     1.84   0.32080  -18.6795
 0.25000    1.84     1.84   0.33717  -18.6780
 0.20000    1.84     1.84   0.34664  -18.6792
 0.15000    1.84     1.84   0.35328  -18.6804
 0.10000    1.84     1.84   0.35570  -18.6815
 0.05000    1.84     1.84   0.35781  -18.6819
 -0.00000    1.84     1.84   0.35792  -18.6819
 -0.05000    1.84     1.84   0.35735  -18.6819
 -0.10000    1.84     1.84   0.35699  -18.6812
 -0.15000    1.84     1.84   0.35277  -18.6804
 -0.20000    1.84     1.84   0.34850  -18.6792
 -0.25000    1.84     1.84   0.33985  -18.6777
 -0.30000    1.84     1.84   0.32435  -18.6778
 -0.35000    1.84     1.84   0.30731  -18.6830
 -0.40000    1.84     1.84   0.29938  -18.6930
 -0.45000    1.84     1.84   0.29866  -18.7007
 -0.50000    1.84     1.84   0.30041  -18.7074
 -0.55000    1.84     1.84   0.30438  -18.7131
 -0.60000    1.84     1.84   0.30798  -18.7182
 -0.65000    1.84     1.84   0.31349  -18.7223
 -0.70000    1.84     1.84   0.32018  -18.7256
 -0.75000    1.84     1.84   0.32677  -18.7278
 -0.80000    1.84     1.84   0.33418  -18.7290
 -0.85000    1.84     1.84   0.34005  -18.7293
 -0.90000    1.84     1.84   0.34448  -18.7290
 -0.95000    1.84     1.84   0.34963  -18.7283
 -1.00000    1.84     1.84   0.35153  -18.7280
 -1.05000    1.84     1.84   0.35411  -18.7274
 -1.10000    1.84     1.84   0.35673  -18.7270
 -1.15000    1.84     1.84   0.35879  -18.7268
 -1.20000    1.84     1.84   0.35977  -18.7264
 -1.25000    1.84     1.84   0.36162  -18.7262
 -1.30000    1.84     1.84   0.36224  -18.7260
 -1.35000    1.84     1.84   0.36363  -18.7258
 -1.40000    1.84     1.84   0.36507  -18.7253
 -1.45000    1.84     1.84   0.36590  -18.7253
 -1.50000    1.84     1.84   0.36610  -18.7253
 -1.55000    1.84     1.84   0.36734  -18.7252
 -1.60000    1.84     1.84   0.36775  -18.7250
 -1.65000    1.84     1.84   0.36770  -18.7251
 -1.70000    1.84     1.84   0.36847  -18.7247
 -1.75000    1.84     1.84   0.36924  -18.7247
 -1.80000    1.84     1.84   0.36960  -18.7245
 -1.85000    1.84     1.84   0.36981  -18.7243
 -1.90000    1.84     1.84   0.37037  -18.7244
 -1.95000    1.84     1.84   0.37176  -18.7243
 -2.00000    1.84     1.84   0.37089  -18.7244
 -2.05000    1.84     1.84   0.37228  -18.7243
 -2.10000    1.84     1.84   0.37130  -18.7242
 -2.15000    1.84     1.84   0.37161  -18.7241
 -2.20000    1.84     1.84   0.37048  -18.7239
 -2.25000    1.84     1.84   0.37285  -18.7239
 -2.30000    1.84     1.84   0.37357  -18.7239
 -2.35000    1.84     1.84   0.37315  -18.7236
 -2.40000    1.84     1.84   0.37382  -18.7233
 -2.45000    1.84     1.84   0.37382  -18.7235
 -2.50000    1.84     1.84   0.37310  -18.7234
 -2.55000    1.84     1.84   0.37346  -18.7235
 -2.60000    1.84     1.84   0.37429  -18.7232
 -2.65000    1.84     1.84   0.37465  -18.7231
 -2.70000    1.84     1.84   0.37449  -18.7238
 -2.75000    1.84     1.84   0.37542  -18.7239
 -2.80000    1.84     1.84   0.37470  -18.7238
 -2.85000    1.84     1.84   0.37537  -18.7235
 -2.90000    1.84     1.84   0.37583  -18.7230
 -2.95000    1.84     1.84   0.37593  -18.7233
 -3.00000    1.84     1.84   0.37568  -18.7232
 -3.05000    1.84     1.84   0.37630  -18.7233
 -3.10000    1.84     1.84   0.37681  -18.7231
 -3.15000    1.84     1.84   0.37630  -18.7234
 -3.20000    1.84     1.84   0.37686  -18.7237
 -3.25000    1.84     1.84   0.37686  -18.7239
 -3.30000    1.84     1.84   0.37712  -18.7240
 -3.35000    1.84     1.84   0.37666  -18.7238
 -3.40000    1.84     1.84   0.37769  -18.7240
 -3.45000    1.84     1.84   0.37707  -18.7238
 -3.50000    1.84     1.84   0.37810  -18.7237
 -3.55000    1.84     1.84   0.37738  -18.7235
 -3.60000    1.84     1.84   0.37769  -18.7233
 -3.65000    1.84     1.84   0.37825  -18.7234
 -3.70000    1.84     1.84   0.37815  -18.7238
 -3.75000    1.84     1.84   0.37815  -18.7237
 -3.80000    1.84     1.84   0.37835  -18.7238
 -3.85000    1.84     1.84   0.37856  -18.7237
 -3.90000    1.84     1.84   0.37933  -18.7234
 -3.95000    1.84     1.84   0.37938  -18.7235
 -4.00000    1.84     1.84   0.38021  -18.7234
 -4.05000    1.84     1.84   0.37969  -18.7233
 -4.10000    1.84     1.84   0.37980  -18.7234
 -4.15000    1.84     1.84   0.38047  -18.7234
 -4.20000    1.84     1.84   0.38021  -18.7233
 -4.25000    1.84     1.84   0.38088  -18.7233
 -4.30000    1.84     1.84   0.38031  -18.7232
 -4.35000    1.84     1.84   0.38031  -18.7232
 -4.40000    1.84     1.84   0.38216  -18.7232
 -4.45000    1.84     1.84   0.38052  -18.7232
 -4.50000    1.84     1.84   0.38088  -18.7232
 -4.55000    1.84     1.84   0.38098  -18.7231
 -4.60000    1.84     1.84   0.38098  -18.7229
 -4.65000    1.84     1.84   0.38175  -18.7230
 -4.70000    1.84     1.84   0.38155  -18.7230
 -4.75000    1.84     1.84   0.38093  -18.7232
 -4.80000    1.84     1.84   0.38227  -18.7233
 -4.85000    1.84     1.84   0.38211  -18.7228
 -4.90000    1.84     1.84   0.38227  -18.7228
 -4.95000    1.84     1.84   0.38288  -18.7226
 -5.00000    1.84     1.84   0.38155  -18.7229
 -5.05000    1.84     1.84   0.38247  -18.7229
 -5.10000    1.84     1.84   0.38206  -18.7229
 -5.15000    1.84     1.84   0.38247  -18.7230
 -5.20000    1.84     1.84   0.38237  -18.7229
 -5.25000    1.84     1.84   0.38330  -18.7229
 -5.30000    1.84     1.84   0.38324  -18.7227
 -5.35000    1.84     1.84   0.38288  -18.7228
 -5.40000    1.84     1.84   0.38299  -18.7227
 -5.45000    1.84     1.84   0.38345  -18.7228
 -5.50000    1.84     1.84   0.38397  -18.7231
 -5.55000    1.84     1.84   0.38294  -18.7228
 -5.60000    1.84     1.84   0.38402  -18.7229
 -5.65000    1.84     1.84   0.38381  -18.7228
 -5.70000    1.84     1.84   0.38494  -18.7227
 -5.75000    1.84     1.84   0.38427  -18.7228
 -5.80000    1.84     1.84   0.38458  -18.7229
 -5.85000    1.84     1.84   0.38350  -18.7227
 -5.90000    1.84     1.84   0.38371  -18.7231
 -5.95000    1.84     1.84   0.38489  -18.7229
 -6.00000    1.84     1.84   0.38453  -18.7227
 -6.05000    1.84     1.84   0.38427  -18.7229
 -6.10000    1.84     1.84   0.38494  -18.7228
 -6.15000    1.84     1.84   0.38474  -18.7230
 -6.20000    1.84     1.84   0.38597  -18.7229
 -6.25000    1.84     1.84   0.38505  -18.7227
 -6.30000    1.84     1.84   0.38561  -18.7226
 -6.35000    1.84     1.84   0.38515  -18.7227
 -6.40000    1.84     1.84   0.38551  -18.7229
 -6.45000    1.84     1.84   0.38510  -18.7228
 -6.50000    1.84     1.84   0.38484  -18.7228
 -6.55000    1.84     1.84   0.38561  -18.7225
 -6.60000    1.84     1.84   0.38530  -18.7226
 -6.65000    1.84     1.84   0.38561  -18.7226
 -6.70000    1.84     1.84   0.38613  -18.7229
 -6.75000    1.84     1.84   0.38664  -18.7225
 -6.80000    1.84     1.84   0.38669  -18.7221
 -6.85000    1.84     1.84   0.38654  -18.7221
 -6.90000    1.84     1.84   0.38685  -18.7224
 -6.95000    1.84     1.84   0.38741  -18.7225
 -7.00000    1.84     1.84   0.38721  -18.7225
 -7.00000    1.84     1.84   0.38700  -18.7223
 -6.95000    1.84     1.84   0.38736  -18.7224
 -6.90000    1.84     1.84   0.38644  -18.7226
 -6.85000    1.84     1.84   0.38639  -18.7224
 -6.80000    1.84     1.84   0.38659  -18.7225
 -6.75000    1.84     1.84   0.38654  -18.7226
 -6.70000    1.84     1.84   0.38602  -18.7225
 -6.65000    1.84     1.84   0.38690  -18.7222
 -6.60000    1.84     1.84   0.38685  -18.7223
 -6.55000    1.84     1.84   0.38664  -18.7225
 -6.50000    1.84     1.84   0.38561  -18.7224
 -6.45000    1.84     1.84   0.38592  -18.7225
 -6.40000    1.84     1.84   0.38587  -18.7224
 -6.35000    1.84     1.84   0.38566  -18.7224
 -6.30000    1.84     1.84   0.38587  -18.7226
 -6.25000    1.84     1.84   0.38505  -18.7224
 -6.20000    1.84     1.84   0.38551  -18.7226
 -6.15000    1.84     1.84   0.38536  -18.7225
 -6.10000    1.84     1.84   0.38546  -18.7226
 -6.05000    1.84     1.84   0.38530  -18.7225
 -6.00000    1.84     1.84   0.38474  -18.7223
 -5.95000    1.84     1.84   0.38484  -18.7225
 -5.90000    1.84     1.84   0.38474  -18.7229
 -5.85000    1.84     1.84   0.38561  -18.7228
 -5.80000    1.84     1.84   0.38510  -18.7229
 -5.75000    1.84     1.84   0.38474  -18.7228
 -5.70000    1.84     1.84   0.38520  -18.7231
 -5.65000    1.84     1.84   0.38536  -18.7229
 -5.60000    1.84     1.84   0.38505  -18.7228
 -5.55000    1.84     1.84   0.38458  -18.7231
 -5.50000    1.84     1.84   0.38448  -18.7229
 -5.45000    1.84     1.84   0.38505  -18.7230
 -5.40000    1.84     1.84   0.38505  -18.7232
 -5.35000    1.84     1.84   0.38448  -18.7230
 -5.30000    1.84     1.84   0.38463  -18.7231
 -5.25000    1.84     1.84   0.38484  -18.7230
 -5.20000    1.84     1.84   0.38402  -18.7233
 -5.15000    1.84     1.84   0.38463  -18.7233
 -5.10000    1.84     1.84   0.38391  -18.7231
 -5.05000    1.84     1.84   0.38469  -18.7229
 -5.00000    1.84     1.84   0.38469  -18.7226
 -4.95000    1.84     1.84   0.38433  -18.7229
 -4.90000    1.84     1.84   0.38402  -18.7231
 -4.85000    1.84     1.84   0.38397  -18.7230
 -4.80000    1.84     1.84   0.38433  -18.7233
 -4.75000    1.84     1.84   0.38361  -18.7232
 -4.70000    1.84     1.84   0.38438  -18.7234
 -4.65000    1.84     1.84   0.38417  -18.7234
 -4.60000    1.84     1.84   0.38427  -18.7234
 -4.55000    1.84     1.84   0.38314  -18.7232
 -4.50000    1.84     1.84   0.38376  -18.7234
 -4.45000    1.84     1.84   0.38391  -18.7231
 -4.40000    1.84     1.84   0.38335  -18.7237
 -4.35000    1.84     1.84   0.38283  -18.7239
 -4.30000    1.84     1.84   0.38366  -18.7241
 -4.25000    1.84     1.84   0.38330  -18.7239
 -4.20000    1.84     1.84   0.38314  -18.7238
 -4.15000    1.84     1.84   0.38304  -18.7239
 -4.10000    1.84     1.84   0.38345  -18.7237
 -4.05000    1.84     1.84   0.38319  -18.7237
 -4.00000    1.84     1.84   0.38252  -18.7238
 -3.95000    1.84     1.84   0.38227  -18.7239
 -3.90000    1.84     1.84   0.38242  -18.7242
 -3.85000    1.84     1.84   0.38258  -18.7241
 -3.80000    1.84     1.84   0.38247  -18.7241
 -3.75000    1.84     1.84   0.38175  -18.7246
 -3.70000    1.84     1.84   0.38144  -18.7244
 -3.65000    1.84     1.84   0.38139  -18.7247
 -3.60000    1.84     1.84   0.38160  -18.7247
 -3.55000    1.84     1.84   0.38160  -18.7242
 -3.50000    1.84     1.84   0.38083  -18.7241
 -3.45000    1.84     1.84   0.38144  -18.7243
 -3.40000    1.84     1.84   0.38134  -18.7245
 -3.35000    1.84     1.84   0.38072  -18.7243
 -3.30000    1.84     1.84   0.38088  -18.7244
 -3.25000    1.84     1.84   0.38103  -18.7247
 -3.20000    1.84     1.84   0.38016  -18.7244
 -3.15000    1.84     1.84   0.38016  -18.7245
 -3.10000    1.84     1.84   0.37985  -18.7248
 -3.05000    1.84     1.84   0.37933  -18.7248
 -3.00000    1.84     1.84   0.37949  -18.7250
 -2.95000    1.84     1.84   0.37954  -18.7250
 -2.90000    1.84     1.84   0.37913  -18.7252
 -2.85000    1.84     1.84   0.37902  -18.7249
 -2.80000    1.84     1.84   0.37882  -18.7249
 -2.75000    1.84     1.84   0.37753  -18.7251
 -2.70000    1.84     1.84   0.37825  -18.7252
 -2.65000    1.84     1.84   0.37774  -18.7250
 -2.60000    1.84     1.84   0.37820  -18.7254
 -2.55000    1.84     1.84   0.37805  -18.7249
 -2.50000    1.84     1.84   0.37763  -18.7252
 -2.40000    1.84     1.84   0.37908  -18.7257
 -2.35000    1.84     1.84   0.37887  -18.7253
 -2.30000    1.84     1.84   0.37774  -18.7253
 -2.25000    1.84     1.84   0.37774  -18.7248
 -2.20000    1.84     1.84   0.37738  -18.7253
 -2.15000    1.84     1.84   0.37815  -18.7258
 -2.10000    1.84     1.84   0.37681  -18.7253
 -2.05000    1.84     1.84   0.37588  -18.7253
 -2.00000    1.84     1.84   0.37604  -18.7258
 -1.95000    1.84     1.84   0.37599  -18.7258
 -1.90000    1.84     1.84   0.37583  -18.7258
 -1.85000    1.84     1.84   0.37563  -18.7258
 -1.80000    1.84     1.84   0.37527  -18.7258
 -1.75000    1.84     1.84   0.37382  -18.7258
 -1.70000    1.84     1.84   0.37382  -18.7258
 -1.65000    1.84     1.84   0.37249  -18.7260
 -1.60000    1.84     1.84   0.37259  -18.7258
 -1.55000    1.84     1.84   0.37228  -18.7258
 -1.50000    1.84     1.84   0.37063  -18.7258
 -1.45000    1.84     1.84   0.37104  -18.7263
 -1.40000    1.84     1.84   0.37032  -18.7266
 -1.35000    1.84     1.84   0.36873  -18.7263
 -1.30000    1.84     1.84   0.36878  -18.7263
 -1.25000    1.84     1.84   0.36672  -18.7269
 -1.20000    1.84     1.84   0.36595  -18.7268
 -1.15000    1.84     1.84   0.36435  -18.7273
 -1.10000    1.84     1.84   0.36322  -18.7273
 -1.05000    1.84     1.84   0.36106  -18.7280
 -1.00000    1.84     1.84   0.35853  -18.7278
 -0.95000    1.84     1.84   0.35591  -18.7283
 -0.90000    1.84     1.84   0.35184  -18.7288
 -0.85000    1.84     1.84   0.34731  -18.7293
 -0.80000    1.84     1.84   0.34067  -18.7293
 -0.75000    1.84     1.84   0.33388  -18.7278
 -0.70000    1.84     1.84   0.32507  -18.7256
 -0.65000    1.84     1.84   0.31879  -18.7222
 -0.60000    1.84     1.84   0.31282  -18.7183
 -0.55000    1.84     1.84   0.30752  -18.7135
 -0.50000    1.84     1.84   0.30330  -18.7077
 -0.45000    1.84     1.84   0.30155  -18.7010
 -0.40000    1.84     1.84   0.29815  -18.6919
 -0.35000    1.84     1.84   0.30402  -18.6832
 -0.30000    1.84     1.84   0.32209  -18.6774
 -0.25000    1.84     1.84   0.33779  -18.6763
 -0.20000    1.84     1.84   0.34762  -18.6778
 -0.15000    1.84     1.84   0.35205  -18.6788
 -0.10000    1.84     1.84   0.35637  -18.6798
 -0.05000    1.84     1.84   0.35694  -18.6806
 0.00000    1.84     1.84   0.35776  -18.6808
