 Field[T] Tsmpl[K] Tcntr[K] Signal   Mirror[MM]
 0.00000    1.84     1.84   0.45005  -18.4312
 0.02000    1.84     1.84   0.44839  -18.4298
 0.04000    1.84     1.84   0.44896  -18.4308
 0.06000    1.84     1.84   0.44841  -18.4309
 0.08000    1.84     1.84   0.44712  -18.4314
 0.10000    1.84     1.84   0.44664  -18.4310
 0.12000    1.84     1.84   0.44514  -18.4317
 0.14000    1.84     1.84   0.43910  -18.4302
 0.16000    1.84     1.84   0.43817  -18.4306
 0.18000    1.84     1.84   0.43363  -18.4307
 0.20000    1.84     1.84   0.43049  -18.4314
 0.22000    1.84     1.84   0.42616  -18.4325
 0.24000    1.84     1.84   0.41845  -18.4323
 0.26000    1.84     1.84   0.41228  -18.4336
 0.28000    1.84     1.84   0.40420  -18.4362
 0.30000    1.84     1.84   0.39818  -18.4396
 0.32000    1.84     1.84   0.39212  -18.4428
 0.34000    1.84     1.84   0.38576  -18.4478
 0.36000    1.84     1.84   0.38477  -18.4540
 0.38000    1.84     1.84   0.38928  -18.4587
 0.40000    1.84     1.84   0.39454  -18.4626
 0.42000    1.84     1.84   0.39798  -18.4653
 0.44000    1.84     1.84   0.40305  -18.4694
 0.46000    1.84     1.84   0.40887  -18.4718
 0.48000    1.84     1.84   0.41364  -18.4741
 0.50000    1.84     1.84   0.42021  -18.4770
 0.52000    1.84     1.84   0.42710  -18.4793
 0.54000    1.84     1.84   0.43402  -18.4810
 0.56000    1.84     1.84   0.43882  -18.4828
 0.58000    1.84     1.84   0.44650  -18.4846
 0.60000    1.84     1.84   0.45159  -18.4854
 0.62000    1.84     1.84   0.45847  -18.4867
 0.64000    1.84     1.84   0.46492  -18.4877
 0.66000    1.84     1.84   0.47134  -18.4880
 0.68000    1.84     1.84   0.47758  -18.4881
 0.70000    1.84     1.84   0.48602  -18.4888
 0.72000    1.84     1.84   0.49122  -18.4888
 0.74000    1.84     1.84   0.49742  -18.4888
 0.76000    1.84     1.84   0.50223  -18.4875
 0.78000    1.84     1.84   0.50870  -18.4877
 0.80000    1.84     1.84   0.51391  -18.4876
 0.82000    1.84     1.84   0.51771  -18.4862
 0.84000    1.84     1.84   0.52119  -18.4860
 0.86000    1.84     1.84   0.52445  -18.4851
 0.88000    1.84     1.84   0.52768  -18.4850
 0.90000    1.84     1.84   0.53173  -18.4835
 0.92000    1.84     1.84   0.53265  -18.4824
 0.94000    1.84     1.84   0.53436  -18.4819
 0.96000    1.84     1.84   0.53692  -18.4814
 0.98000    1.84     1.84   0.53922  -18.4811
 1.00000    1.84     1.84   0.54190  -18.4807
 1.02000    1.84     1.84   0.54024  -18.4799
 1.04000    1.84     1.84   0.54236  -18.4789
 1.06000    1.84     1.84   0.54238  -18.4784
 1.08000    1.84     1.84   0.54451  -18.4787
 1.10000    1.84     1.84   0.54668  -18.4783
 1.12000    1.84     1.84   0.54677  -18.4780
 1.14000    1.84     1.84   0.54727  -18.4779
 1.16000    1.84     1.84   0.54709  -18.4771
 1.18000    1.84     1.84   0.54845  -18.4772
 1.20000    1.84     1.84   0.54775  -18.4756
 1.22000    1.84     1.84   0.54817  -18.4761
 1.24000    1.84     1.84   0.54991  -18.4764
 1.26000    1.84     1.84   0.55064  -18.4760
 1.28000    1.84     1.84   0.54919  -18.4743
 1.30000    1.84     1.84   0.55099  -18.4751
 1.32000    1.84     1.84   0.55087  -18.4744
 1.34000    1.84     1.84   0.55196  -18.4748
 1.36000    1.84     1.84   0.55202  -18.4748
 1.38000    1.84     1.84   0.55168  -18.4741
 1.40000    1.84     1.84   0.55260  -18.4747
 1.42000    1.84     1.84   0.55175  -18.4739
 1.44000    1.84     1.84   0.55299  -18.4740
 1.46000    1.84     1.84   0.55290  -18.4730
 1.48000    1.84     1.84   0.55180  -18.4726
 1.50000    1.84     1.84   0.55212  -18.4731
 1.52000    1.84     1.84   0.55412  -18.4734
 1.54000    1.84     1.84   0.55329  -18.4728
 1.56000    1.84     1.84   0.55459  -18.4725
 1.58000    1.84     1.84   0.55297  -18.4719
 1.60000    1.84     1.84   0.55412  -18.4721
 1.62000    1.84     1.84   0.55479  -18.4718
 1.64000    1.84     1.84   0.55479  -18.4719
 1.66000    1.84     1.84   0.55468  -18.4719
 1.68000    1.84     1.84   0.55528  -18.4727
 1.70000    1.84     1.84   0.55500  -18.4723
 1.72000    1.84     1.84   0.55539  -18.4718
 1.74000    1.84     1.84   0.55550  -18.4717
 1.76000    1.84     1.84   0.55493  -18.4714
 1.78000    1.84     1.84   0.55465  -18.4712
 1.80000    1.84     1.84   0.55338  -18.4703
 1.82000    1.84     1.84   0.55426  -18.4700
 1.84000    1.84     1.84   0.55514  -18.4707
 1.86000    1.84     1.84   0.55549  -18.4712
 1.88000    1.84     1.84   0.55587  -18.4707
 1.90000    1.84     1.84   0.55532  -18.4707
 1.92000    1.84     1.84   0.55583  -18.4708
 1.94000    1.84     1.84   0.55426  -18.4700
 1.96000    1.84     1.84   0.55528  -18.4707
 1.98000    1.84     1.84   0.55703  -18.4709
 2.00000    1.84     1.84   0.55410  -18.4694
 2.00000    1.84     1.84   0.55675  -18.4702
 1.98000    1.84     1.84   0.55606  -18.4710
 1.96000    1.84     1.84   0.55673  -18.4706
 1.94000    1.84     1.84   0.55417  -18.4696
 1.92000    1.84     1.84   0.55497  -18.4695
 1.90000    1.84     1.84   0.55495  -18.4704
 1.88000    1.84     1.84   0.55571  -18.4702
 1.86000    1.84     1.84   0.55525  -18.4702
 1.84000    1.84     1.84   0.55463  -18.4701
 1.82000    1.84     1.84   0.55435  -18.4704
 1.80000    1.84     1.84   0.55405  -18.4704
 1.78000    1.84     1.84   0.55442  -18.4715
 1.76000    1.84     1.84   0.55622  -18.4716
 1.74000    1.84     1.84   0.55394  -18.4706
 1.72000    1.84     1.84   0.55258  -18.4714
 1.70000    1.84     1.84   0.55412  -18.4713
 1.68000    1.84     1.84   0.55435  -18.4717
 1.66000    1.84     1.84   0.55537  -18.4721
 1.64000    1.84     1.84   0.55307  -18.4719
 1.62000    1.84     1.84   0.55528  -18.4725
 1.60000    1.84     1.84   0.55438  -18.4719
 1.58000    1.84     1.84   0.55405  -18.4727
 1.56000    1.84     1.84   0.55304  -18.4718
 1.54000    1.84     1.84   0.55286  -18.4719
 1.52000    1.84     1.84   0.55087  -18.4700
 1.50000    1.84     1.84   0.55468  -18.4731
 1.48000    1.84     1.84   0.55297  -18.4729
 1.46000    1.84     1.84   0.55180  -18.4725
 1.44000    1.84     1.84   0.55389  -18.4729
 1.42000    1.84     1.84   0.55189  -18.4724
 1.40000    1.84     1.84   0.55117  -18.4727
 1.38000    1.84     1.84   0.55078  -18.4728
 1.36000    1.84     1.84   0.55082  -18.4735
 1.34000    1.84     1.84   0.55082  -18.4741
 1.32000    1.84     1.84   0.54963  -18.4732
 1.30000    1.84     1.84   0.55087  -18.4742
 1.28000    1.84     1.84   0.55043  -18.4743
 1.26000    1.84     1.84   0.55028  -18.4746
 1.24000    1.84     1.84   0.54790  -18.4745
 1.22000    1.84     1.84   0.54771  -18.4748
 1.20000    1.84     1.84   0.54785  -18.4751
 1.18000    1.84     1.84   0.54653  -18.4756
 1.16000    1.84     1.84   0.54684  -18.4758
 1.14000    1.84     1.84   0.54589  -18.4755
 1.12000    1.84     1.84   0.54656  -18.4765
 1.10000    1.84     1.84   0.54564  -18.4772
 1.08000    1.84     1.84   0.54515  -18.4775
 1.06000    1.84     1.84   0.54395  -18.4783
 1.04000    1.84     1.84   0.54220  -18.4781
 1.02000    1.84     1.84   0.54176  -18.4793
 1.00000    1.84     1.84   0.54045  -18.4799
 0.98000    1.84     1.84   0.53941  -18.4802
 0.96000    1.84     1.84   0.53805  -18.4807
 0.94000    1.84     1.84   0.53671  -18.4813
 0.92000    1.84     1.84   0.53417  -18.4817
 0.90000    1.84     1.84   0.53237  -18.4831
 0.88000    1.84     1.84   0.52797  -18.4827
 0.86000    1.84     1.84   0.52232  -18.4825
 0.84000    1.84     1.84   0.52186  -18.4843
 0.82000    1.84     1.84   0.51840  -18.4852
 0.80000    1.84     1.84   0.51425  -18.4861
 0.78000    1.84     1.84   0.51174  -18.4873
 0.76000    1.84     1.84   0.50599  -18.4875
 0.74000    1.84     1.84   0.50023  -18.4879
 0.72000    1.84     1.84   0.49501  -18.4886
 0.70000    1.84     1.84   0.48863  -18.4881
 0.68000    1.84     1.84   0.48187  -18.4876
 0.66000    1.84     1.84   0.47494  -18.4876
 0.64000    1.84     1.84   0.46919  -18.4876
 0.62000    1.84     1.84   0.46198  -18.4866
 0.60000    1.84     1.84   0.45542  -18.4857
 0.58000    1.84     1.84   0.44890  -18.4837
 0.56000    1.84     1.84   0.44205  -18.4827
 0.54000    1.84     1.84   0.43494  -18.4800
 0.52000    1.84     1.84   0.43003  -18.4794
 0.50000    1.84     1.84   0.42238  -18.4774
 0.48000    1.84     1.84   0.41712  -18.4746
 0.46000    1.84     1.84   0.41320  -18.4721
 0.44000    1.84     1.84   0.40769  -18.4706
 0.42000    1.84     1.84   0.39929  -18.4661
 0.40000    1.84     1.84   0.39629  -18.4624
 0.38000    1.84     1.84   0.39284  -18.4599
 0.36000    1.84     1.84   0.38890  -18.4565
 0.34000    1.84     1.84   0.38568  -18.4504
 0.32000    1.84     1.84   0.39051  -18.4451
 0.30000    1.84     1.84   0.39632  -18.4409
 0.28000    1.84     1.84   0.40215  -18.4375
 0.26000    1.84     1.84   0.41011  -18.4340
 0.24000    1.84     1.84   0.41951  -18.4329
 0.22000    1.84     1.84   0.42401  -18.4306
 0.20000    1.84     1.84   0.43022  -18.4306
 0.18000    1.84     1.84   0.43568  -18.4306
 0.16000    1.84     1.84   0.43863  -18.4296
 0.14000    1.84     1.84   0.44200  -18.4299
 0.12000    1.84     1.84   0.44564  -18.4306
 0.10000    1.84     1.84   0.44707  -18.4301
 0.08000    1.84     1.84   0.44899  -18.4305
 0.06000    1.84     1.84   0.45039  -18.4302
 0.04000    1.84     1.84   0.45275  -18.4305
 0.02000    1.84     1.84   0.45240  -18.4297
 -0.00000    1.84     1.84   0.45240  -18.4297
