 Field[T] Tsmpl[K] Tcntr[K] Signal   Mirror[MM]
 0.00000    1.86     1.86   0.21505  -18.7054
 0.05000    1.86     1.86   0.21597  -18.7055
 0.10000    1.86     1.86   0.21662  -18.7056
 0.15000    1.86     1.86   0.21680  -18.7050
 0.20000    1.86     1.86   0.21705  -18.7050
 0.25000    1.86     1.86   0.21705  -18.7047
 0.30000    1.86     1.86   0.21702  -18.7041
 0.35000    1.86     1.86   0.21699  -18.7041
 0.40000    1.86     1.86   0.21634  -18.7043
 0.45000    1.86     1.86   0.21532  -18.7043
 0.50000    1.86     1.86   0.21363  -18.7044
 0.55000    1.86     1.86   0.21064  -18.7041
 0.60000    1.86     1.86   0.20590  -18.7046
 0.65000    1.86     1.86   0.20116  -18.7070
 0.70000    1.86     1.86   0.19795  -18.7109
 0.75000    1.86     1.86   0.19678  -18.7158
 0.80000    1.86     1.86   0.19903  -18.7203
 0.85000    1.86     1.86   0.20270  -18.7239
 0.90000    1.86     1.86   0.20698  -18.7266
 0.95000    1.86     1.86   0.21144  -18.7288
 1.00000    1.86     1.86   0.21656  -18.7302
 1.05000    1.86     1.86   0.22151  -18.7310
 1.10000    1.86     1.86   0.22583  -18.7311
 1.15000    1.86     1.86   0.22952  -18.7305
 1.20000    1.86     1.86   0.23245  -18.7293
 1.25000    1.86     1.86   0.23531  -18.7284
 1.30000    1.86     1.86   0.23768  -18.7278
 1.35000    1.86     1.86   0.23935  -18.7273
 1.40000    1.86     1.86   0.24046  -18.7265
 1.45000    1.86     1.86   0.24095  -18.7259
 1.50000    1.86     1.86   0.24190  -18.7254
 1.55000    1.86     1.86   0.24252  -18.7249
 1.60000    1.86     1.86   0.24307  -18.7242
 1.65000    1.86     1.86   0.24372  -18.7240
 1.70000    1.86     1.86   0.24415  -18.7241
 1.75000    1.86     1.86   0.24437  -18.7238
 1.80000    1.86     1.86   0.24495  -18.7234
 1.85000    1.86     1.86   0.24520  -18.7233
 1.90000    1.86     1.86   0.24582  -18.7229
 1.95000    1.86     1.86   0.24600  -18.7227
 2.00000    1.86     1.86   0.24625  -18.7225
 2.05000    1.86     1.86   0.24655  -18.7223
 2.10000    1.86     1.86   0.24665  -18.7220
 2.15000    1.86     1.86   0.24671  -18.7218
 2.20000    1.86     1.86   0.24696  -18.7218
 2.25000    1.86     1.86   0.24711  -18.7217
 2.30000    1.86     1.86   0.24745  -18.7211
 2.35000    1.86     1.86   0.24739  -18.7215
 2.40000    1.86     1.86   0.24757  -18.7211
 2.45000    1.86     1.86   0.24769  -18.7209
 2.50000    1.86     1.86   0.24806  -18.7208
 2.55000    1.86     1.86   0.24782  -18.7204
 2.60000    1.86     1.86   0.24816  -18.7206
 2.65000    1.86     1.86   0.24843  -18.7206
 2.70000    1.86     1.86   0.24874  -18.7205
 2.75000    1.86     1.86   0.24905  -18.7200
 2.80000    1.86     1.86   0.24908  -18.7199
 2.85000    1.86     1.86   0.24930  -18.7200
 2.90000    1.86     1.86   0.24933  -18.7198
 2.95000    1.86     1.86   0.24976  -18.7197
 3.00000    1.86     1.86   0.25000  -18.7194
 3.05000    1.86     1.86   0.25016  -18.7195
 3.10000    1.86     1.86   0.24979  -18.7196
 3.15000    1.86     1.86   0.25000  -18.7195
 3.20000    1.86     1.86   0.24997  -18.7192
 3.25000    1.86     1.86   0.24979  -18.7193
 3.30000    1.86     1.86   0.24979  -18.7195
 3.35000    1.86     1.86   0.25034  -18.7194
 3.40000    1.86     1.86   0.25050  -18.7193
 3.45000    1.86     1.86   0.25025  -18.7191
 3.50000    1.86     1.86   0.25010  -18.7189
 3.55000    1.86     1.86   0.25025  -18.7186
 3.60000    1.86     1.86   0.25068  -18.7189
 3.65000    1.86     1.86   0.25071  -18.7188
 3.70000    1.86     1.86   0.25074  -18.7186
 3.75000    1.86     1.86   0.25050  -18.7184
 3.80000    1.86     1.86   0.25074  -18.7181
 3.85000    1.86     1.86   0.25087  -18.7185
 3.90000    1.86     1.86   0.25093  -18.7182
 3.95000    1.86     1.86   0.25124  -18.7183
 4.00000    1.86     1.86   0.25108  -18.7184
 4.05000    1.86     1.86   0.25124  -18.7182
 4.10000    1.86     1.86   0.25087  -18.7176
 4.15000    1.86     1.86   0.25105  -18.7179
 4.20000    1.86     1.86   0.25139  -18.7179
 4.25000    1.86     1.86   0.25148  -18.7178
 4.30000    1.86     1.86   0.25154  -18.7178
 4.35000    1.86     1.86   0.25154  -18.7180
 4.40000    1.86     1.86   0.25145  -18.7177
 4.45000    1.86     1.86   0.25142  -18.7176
 4.50000    1.86     1.86   0.25148  -18.7179
 4.55000    1.86     1.86   0.25139  -18.7178
 4.60000    1.86     1.86   0.25154  -18.7178
 4.65000    1.86     1.86   0.25161  -18.7177
 4.70000    1.86     1.86   0.25191  -18.7176
 4.75000    1.86     1.86   0.25216  -18.7176
 4.80000    1.86     1.86   0.25191  -18.7173
 4.85000    1.86     1.86   0.25182  -18.7173
 4.90000    1.86     1.86   0.25198  -18.7176
 4.95000    1.86     1.86   0.25201  -18.7176
 5.00000    1.86     1.86   0.25198  -18.7171
 5.05000    1.86     1.86   0.25216  -18.7174
 5.10000    1.86     1.86   0.25244  -18.7171
 5.15000    1.86     1.86   0.25247  -18.7170
 5.20000    1.86     1.86   0.25238  -18.7174
 5.25000    1.86     1.86   0.25231  -18.7173
 5.30000    1.86     1.86   0.25238  -18.7174
 5.35000    1.86     1.86   0.25213  -18.7172
 5.40000    1.86     1.86   0.25207  -18.7170
 5.45000    1.86     1.86   0.25188  -18.7166
 5.50000    1.86     1.86   0.25235  -18.7171
 5.55000    1.86     1.86   0.25225  -18.7169
 5.60000    1.86     1.86   0.25216  -18.7171
 5.65000    1.86     1.86   0.25207  -18.7170
 5.70000    1.86     1.86   0.25238  -18.7166
 5.75000    1.86     1.86   0.25235  -18.7164
 5.80000    1.86     1.86   0.25235  -18.7165
 5.85000    1.86     1.86   0.25244  -18.7168
 5.90000    1.86     1.86   0.25238  -18.7166
 5.95000    1.86     1.86   0.25253  -18.7167
 6.00000    1.86     1.86   0.25235  -18.7163
 6.05000    1.86     1.86   0.25241  -18.7165
 6.10000    1.86     1.86   0.25268  -18.7163
 6.15000    1.86     1.86   0.25262  -18.7160
 6.20000    1.86     1.86   0.25265  -18.7162
 6.25000    1.86     1.86   0.25247  -18.7163
 6.30000    1.86     1.86   0.25268  -18.7166
 6.35000    1.86     1.86   0.25262  -18.7165
 6.40000    1.86     1.86   0.25256  -18.7162
 6.45000    1.86     1.86   0.25256  -18.7166
 6.50000    1.86     1.86   0.25284  -18.7161
 6.55000    1.86     1.86   0.25287  -18.7165
 6.60000    1.86     1.86   0.25296  -18.7165
 6.65000    1.86     1.86   0.25284  -18.7166
 6.70000    1.86     1.86   0.25318  -18.7163
 6.75000    1.86     1.86   0.25290  -18.7164
 6.80000    1.86     1.86   0.25296  -18.7161
 6.85000    1.86     1.86   0.25299  -18.7160
 6.90000    1.86     1.86   0.25287  -18.7162
 6.95000    1.86     1.86   0.25299  -18.7163
 7.00000    1.86     1.86   0.25290  -18.7161
 7.00000    1.86     1.86   0.25290  -18.7160
 6.95000    1.86     1.86   0.25293  -18.7158
 6.90000    1.86     1.86   0.25321  -18.7155
 6.85000    1.86     1.86   0.25333  -18.7156
 6.80000    1.86     1.86   0.25330  -18.7157
 6.75000    1.86     1.86   0.25348  -18.7154
 6.70000    1.86     1.86   0.25373  -18.7156
 6.65000    1.86     1.86   0.25370  -18.7158
 6.60000    1.86     1.86   0.25382  -18.7159
 6.55000    1.86     1.86   0.25401  -18.7158
 6.50000    1.86     1.86   0.25416  -18.7155
 6.45000    1.86     1.86   0.25435  -18.7150
 6.40000    1.86     1.86   0.25438  -18.7154
 6.35000    1.86     1.86   0.25462  -18.7153
 6.30000    1.86     1.86   0.25475  -18.7154
 6.25000    1.86     1.86   0.25472  -18.7157
 6.20000    1.86     1.86   0.25475  -18.7157
 6.15000    1.86     1.86   0.25506  -18.7156
 6.10000    1.86     1.86   0.25555  -18.7156
 6.05000    1.86     1.86   0.25539  -18.7153
 6.00000    1.86     1.86   0.25546  -18.7150
 5.95000    1.86     1.86   0.25561  -18.7151
 5.90000    1.86     1.86   0.25579  -18.7149
 5.85000    1.86     1.86   0.25586  -18.7149
 5.80000    1.86     1.86   0.25604  -18.7148
 5.75000    1.86     1.86   0.25623  -18.7147
 5.70000    1.86     1.86   0.25635  -18.7147
 5.65000    1.86     1.86   0.25604  -18.7144
 5.60000    1.86     1.86   0.25656  -18.7143
 5.55000    1.86     1.86   0.25660  -18.7149
 5.50000    1.86     1.86   0.25653  -18.7153
 5.45000    1.86     1.86   0.25653  -18.7150
 5.40000    1.86     1.86   0.25641  -18.7149
 5.35000    1.86     1.86   0.25703  -18.7147
 5.30000    1.86     1.86   0.25678  -18.7145
 5.25000    1.86     1.86   0.25718  -18.7144
 5.20000    1.86     1.86   0.25740  -18.7144
 5.15000    1.86     1.86   0.25737  -18.7143
 5.10000    1.86     1.86   0.25749  -18.7141
 5.05000    1.86     1.86   0.25749  -18.7144
 5.00000    1.86     1.86   0.25721  -18.7144
 4.95000    1.86     1.86   0.25761  -18.7141
 4.90000    1.86     1.86   0.25792  -18.7141
 4.85000    1.86     1.86   0.25795  -18.7142
 4.80000    1.86     1.86   0.25786  -18.7141
 4.75000    1.86     1.86   0.25810  -18.7142
 4.70000    1.86     1.86   0.25814  -18.7143
 4.65000    1.86     1.86   0.25826  -18.7145
 4.60000    1.86     1.86   0.25869  -18.7144
 4.55000    1.86     1.86   0.25860  -18.7145
 4.50000    1.86     1.86   0.25863  -18.7145
 4.45000    1.86     1.86   0.25869  -18.7147
 4.40000    1.86     1.86   0.25863  -18.7147
 4.35000    1.86     1.86   0.25891  -18.7145
 4.30000    1.86     1.86   0.25915  -18.7147
 4.25000    1.86     1.86   0.25915  -18.7142
 4.20000    1.86     1.86   0.25918  -18.7139
 4.15000    1.86     1.86   0.25918  -18.7140
 4.10000    1.86     1.86   0.25974  -18.7141
 4.05000    1.86     1.86   0.25971  -18.7142
 4.00000    1.86     1.86   0.25986  -18.7140
 3.95000    1.86     1.86   0.26005  -18.7142
 3.90000    1.86     1.86   0.25986  -18.7141
 3.85000    1.86     1.86   0.25977  -18.7141
 3.80000    1.86     1.86   0.26014  -18.7143
 3.75000    1.86     1.86   0.26045  -18.7141
 3.70000    1.86     1.86   0.26057  -18.7142
 3.65000    1.86     1.86   0.26038  -18.7143
 3.60000    1.86     1.86   0.26057  -18.7144
 3.55000    1.86     1.86   0.26066  -18.7141
 3.50000    1.86     1.86   0.26075  -18.7145
 3.45000    1.86     1.86   0.26060  -18.7147
 3.40000    1.86     1.86   0.26085  -18.7145
 3.35000    1.86     1.86   0.26091  -18.7145
 3.30000    1.86     1.86   0.26134  -18.7145
 3.25000    1.86     1.86   0.26137  -18.7143
 3.20000    1.86     1.86   0.26171  -18.7142
 3.15000    1.86     1.86   0.26195  -18.7147
 3.10000    1.86     1.86   0.26177  -18.7144
 3.05000    1.86     1.86   0.26189  -18.7145
 3.00000    1.86     1.86   0.26177  -18.7149
 2.95000    1.86     1.86   0.26192  -18.7146
 2.90000    1.86     1.86   0.26199  -18.7148
 2.85000    1.86     1.86   0.26223  -18.7146
 2.80000    1.86     1.86   0.26242  -18.7145
 2.75000    1.86     1.86   0.26226  -18.7146
 2.70000    1.86     1.86   0.26254  -18.7145
 2.65000    1.86     1.86   0.26239  -18.7146
 2.60000    1.86     1.86   0.26251  -18.7152
 2.55000    1.86     1.86   0.26229  -18.7151
 2.50000    1.86     1.86   0.26276  -18.7152
 2.45000    1.86     1.86   0.26272  -18.7148
 2.40000    1.86     1.86   0.26288  -18.7148
 2.35000    1.86     1.86   0.26282  -18.7152
 2.30000    1.86     1.86   0.26300  -18.7154
 2.25000    1.86     1.86   0.26297  -18.7150
 2.20000    1.86     1.86   0.26288  -18.7151
 2.15000    1.86     1.86   0.26303  -18.7158
 2.10000    1.86     1.86   0.26294  -18.7157
 2.05000    1.86     1.86   0.26303  -18.7154
 2.00000    1.86     1.86   0.26306  -18.7154
 1.95000    1.86     1.86   0.26325  -18.7153
 1.90000    1.86     1.86   0.26316  -18.7158
 1.85000    1.86     1.86   0.26319  -18.7160
 1.80000    1.86     1.86   0.26294  -18.7160
 1.75000    1.86     1.86   0.26282  -18.7163
 1.70000    1.86     1.86   0.26291  -18.7159
 1.65000    1.86     1.86   0.26297  -18.7162
 1.60000    1.86     1.86   0.26272  -18.7163
 1.55000    1.86     1.86   0.26239  -18.7165
 1.50000    1.86     1.86   0.26217  -18.7174
 1.45000    1.86     1.86   0.26094  -18.7181
 1.40000    1.86     1.86   0.26051  -18.7183
 1.35000    1.86     1.86   0.25968  -18.7194
 1.30000    1.86     1.86   0.25860  -18.7202
 1.25000    1.86     1.86   0.25724  -18.7208
 1.20000    1.86     1.86   0.25472  -18.7218
 1.15000    1.86     1.86   0.25207  -18.7221
 1.10000    1.86     1.86   0.24822  -18.7226
 1.05000    1.86     1.86   0.24424  -18.7225
 1.00000    1.86     1.86   0.23926  -18.7217
 0.95000    1.86     1.86   0.23448  -18.7204
 0.90000    1.86     1.86   0.23008  -18.7185
 0.85000    1.86     1.86   0.22598  -18.7155
 0.80000    1.86     1.86   0.22250  -18.7125
 0.75000    1.86     1.86   0.22037  -18.7082
 0.70000    1.86     1.86   0.22179  -18.7039
 0.65000    1.86     1.86   0.22540  -18.6997
 0.60000    1.86     1.86   0.23091  -18.6969
 0.55000    1.86     1.86   0.23673  -18.6956
 0.50000    1.86     1.86   0.24039  -18.6957
 0.45000    1.86     1.86   0.24317  -18.6959
 0.40000    1.86     1.86   0.24535  -18.6958
 0.35000    1.86     1.86   0.24674  -18.6957
 0.30000    1.86     1.86   0.24788  -18.6958
 0.25000    1.86     1.86   0.24862  -18.6957
 0.20000    1.86     1.86   0.24933  -18.6955
 0.15000    1.86     1.86   0.24982  -18.6955
 0.10000    1.86     1.86   0.25053  -18.6955
 0.05000    1.86     1.86   0.25087  -18.6952
 -0.00000    1.86     1.86   0.25117  -18.6949
