 Field[T] Tsmpl[K] Tcntr[K] Signal   Mirror[MM]
 0.00000    1.86     1.86   0.09521  -18.7693
 0.05000    1.86     1.86   0.09540  -18.7693
 0.10000    1.86     1.86   0.09544  -18.7693
 0.15000    1.86     1.86   0.09544  -18.7693
 0.20000    1.86     1.86   0.09567  -18.7693
 0.25000    1.86     1.86   0.09567  -18.7693
 0.30000    1.86     1.86   0.09594  -18.7693
 0.35000    1.86     1.86   0.09575  -18.7693
 0.40000    1.86     1.86   0.09575  -18.7693
 0.45000    1.86     1.86   0.09567  -18.7693
 0.50000    1.86     1.86   0.09544  -18.7693
 0.55000    1.86     1.86   0.09524  -18.7693
 0.60000    1.86     1.86   0.09490  -18.7693
 0.65000    1.86     1.86   0.09428  -18.7698
 0.70000    1.86     1.86   0.09339  -18.7703
 0.75000    1.86     1.86   0.09235  -18.7718
 0.80000    1.86     1.86   0.09200  -18.7736
 0.85000    1.86     1.86   0.09208  -18.7758
 0.90000    1.86     1.86   0.09266  -18.7768
 0.95000    1.86     1.86   0.09397  -18.7783
 1.00000    1.86     1.86   0.09559  -18.7795
 1.05000    1.86     1.86   0.09710  -18.7798
 1.10000    1.86     1.86   0.09853  -18.7798
 1.15000    1.86     1.86   0.09980  -18.7798
 1.20000    1.86     1.86   0.10112  -18.7798
 1.25000    1.86     1.86   0.10208  -18.7798
 1.30000    1.86     1.86   0.10274  -18.7788
 1.35000    1.86     1.86   0.10320  -18.7785
 1.40000    1.86     1.86   0.10367  -18.7783
 1.45000    1.86     1.86   0.10382  -18.7773
 1.50000    1.86     1.86   0.10398  -18.7768
 1.55000    1.86     1.86   0.10405  -18.7768
 1.60000    1.86     1.86   0.10409  -18.7763
 1.65000    1.86     1.86   0.10425  -18.7758
 1.70000    1.86     1.86   0.10409  -18.7758
 1.75000    1.86     1.86   0.10425  -18.7758
 1.80000    1.86     1.86   0.10413  -18.7758
 1.85000    1.86     1.86   0.10425  -18.7753
 1.90000    1.86     1.86   0.10409  -18.7753
 1.95000    1.86     1.86   0.10425  -18.7748
 2.00000    1.86     1.86   0.10425  -18.7748
 2.05000    1.86     1.86   0.10429  -18.7748
 2.10000    1.86     1.86   0.10436  -18.7748
 2.15000    1.86     1.86   0.10425  -18.7748
 2.20000    1.86     1.86   0.10425  -18.7743
 2.25000    1.86     1.86   0.10429  -18.7743
 2.30000    1.86     1.86   0.10409  -18.7738
 2.35000    1.86     1.86   0.10425  -18.7738
 2.40000    1.86     1.86   0.10425  -18.7738
 2.45000    1.86     1.86   0.10409  -18.7738
 2.50000    1.86     1.86   0.10425  -18.7738
 2.55000    1.86     1.86   0.10409  -18.7738
 2.60000    1.86     1.86   0.10409  -18.7738
 2.65000    1.86     1.86   0.10425  -18.7738
 2.70000    1.86     1.86   0.10409  -18.7738
 2.75000    1.86     1.86   0.10425  -18.7738
 2.80000    1.86     1.86   0.10409  -18.7738
 2.85000    1.86     1.86   0.10409  -18.7738
 2.90000    1.86     1.86   0.10405  -18.7738
 2.95000    1.86     1.86   0.10405  -18.7737
 3.00000    1.86     1.86   0.10405  -18.7733
 3.00000    1.86     1.86   0.10409  -18.7733
 2.95000    1.86     1.86   0.10405  -18.7733
 2.90000    1.86     1.86   0.10405  -18.7733
 2.85000    1.86     1.86   0.10409  -18.7733
 2.80000    1.86     1.86   0.10425  -18.7733
 2.75000    1.86     1.86   0.10436  -18.7733
 2.70000    1.86     1.86   0.10440  -18.7733
 2.65000    1.86     1.86   0.10440  -18.7733
 2.60000    1.86     1.86   0.10456  -18.7733
 2.55000    1.86     1.86   0.10467  -18.7733
 2.50000    1.86     1.86   0.10475  -18.7733
 2.45000    1.86     1.86   0.10475  -18.7733
 2.40000    1.86     1.86   0.10467  -18.7733
 2.35000    1.86     1.86   0.10467  -18.7733
 2.30000    1.86     1.86   0.10483  -18.7733
 2.25000    1.86     1.86   0.10498  -18.7733
 2.20000    1.86     1.86   0.10498  -18.7733
 2.15000    1.86     1.86   0.10498  -18.7733
 2.10000    1.86     1.86   0.10510  -18.7743
 2.05000    1.86     1.86   0.10510  -18.7743
 2.00000    1.86     1.86   0.10510  -18.7743
 1.95000    1.86     1.86   0.10517  -18.7743
 1.90000    1.86     1.86   0.10517  -18.7745
 1.85000    1.86     1.86   0.10529  -18.7748
 1.80000    1.86     1.86   0.10537  -18.7748
 1.75000    1.86     1.86   0.10541  -18.7748
 1.70000    1.86     1.86   0.10533  -18.7748
 1.65000    1.86     1.86   0.10529  -18.7748
 1.60000    1.86     1.86   0.10533  -18.7748
 1.55000    1.86     1.86   0.10552  -18.7754
 1.50000    1.86     1.86   0.10537  -18.7758
 1.45000    1.86     1.86   0.10529  -18.7758
 1.40000    1.86     1.86   0.10502  -18.7763
 1.35000    1.86     1.86   0.10487  -18.7763
 1.30000    1.86     1.86   0.10436  -18.7768
 1.25000    1.86     1.86   0.10378  -18.7773
 1.20000    1.86     1.86   0.10317  -18.7778
 1.15000    1.86     1.86   0.10212  -18.7788
 1.10000    1.86     1.86   0.10073  -18.7793
 1.05000    1.86     1.86   0.09934  -18.7798
 1.00000    1.86     1.86   0.09783  -18.7788
 0.95000    1.86     1.86   0.09621  -18.7778
 0.90000    1.86     1.86   0.09478  -18.7763
 0.85000    1.86     1.86   0.09443  -18.7748
 0.80000    1.86     1.86   0.09424  -18.7728
 0.75000    1.86     1.86   0.09486  -18.7714
 0.70000    1.86     1.86   0.09567  -18.7697
 0.65000    1.86     1.86   0.09679  -18.7693
 0.60000    1.86     1.86   0.09737  -18.7688
 0.55000    1.86     1.86   0.09791  -18.7688
 0.50000    1.86     1.86   0.09826  -18.7688
 0.45000    1.86     1.86   0.09853  -18.7688
 0.40000    1.86     1.86   0.09876  -18.7688
 0.35000    1.86     1.86   0.09895  -18.7673
 0.30000    1.86     1.86   0.09915  -18.7685
 0.25000    1.86     1.86   0.09919  -18.7683
 0.20000    1.86     1.86   0.09922  -18.7683
 0.15000    1.86     1.86   0.09934  -18.7673
 0.10000    1.86     1.86   0.09957  -18.7678
 0.05000    1.86     1.86   0.09930  -18.7678
 -0.00000    1.86     1.86   0.09949  -18.7678
