 Field[T] Tsmpl[K] Tcntr[K] Signal   Mirror[MM]
 0.00000    1.85     1.85   0.04577  -18.9183
 0.05000    1.85     1.85   0.04577  -18.9184
 0.10000    1.85     1.85   0.04572  -18.9181
 0.15000    1.85     1.85   0.04570  -18.9182
 0.20000    1.85     1.85   0.04568  -18.9186
 0.25000    1.85     1.85   0.04564  -18.9187
 0.30000    1.85     1.85   0.04560  -18.9185
 0.35000    1.85     1.85   0.04557  -18.9187
 0.40000    1.85     1.85   0.04554  -18.9181
 0.45000    1.85     1.85   0.04545  -18.9185
 0.50000    1.85     1.85   0.04539  -18.9177
 0.55000    1.85     1.85   0.04535  -18.9176
 0.60000    1.85     1.85   0.04528  -18.9174
 0.65000    1.85     1.85   0.04527  -18.9171
 0.70000    1.85     1.85   0.04520  -18.9165
 0.75000    1.85     1.85   0.04511  -18.9159
 0.80000    1.85     1.85   0.04500  -18.9150
 0.85000    1.85     1.85   0.04473  -18.9137
 0.90000    1.85     1.85   0.04428  -18.9132
 0.95000    1.85     1.85   0.04391  -18.9136
 1.00000    1.85     1.85   0.04345  -18.9142
 1.05000    1.85     1.85   0.04310  -18.9156
 1.10000    1.85     1.85   0.04287  -18.9169
 1.15000    1.85     1.85   0.04275  -18.9183
 1.20000    1.85     1.85   0.04269  -18.9199
 1.25000    1.85     1.85   0.04272  -18.9213
 1.30000    1.85     1.85   0.04281  -18.9224
 1.35000    1.85     1.85   0.04290  -18.9232
 1.40000    1.85     1.85   0.04299  -18.9239
 1.45000    1.85     1.85   0.04308  -18.9243
 1.50000    1.85     1.85   0.04320  -18.9245
 1.55000    1.85     1.85   0.04325  -18.9248
 1.60000    1.85     1.85   0.04329  -18.9249
 1.65000    1.85     1.85   0.04341  -18.9251
 1.70000    1.85     1.85   0.04345  -18.9250
 1.75000    1.85     1.85   0.04348  -18.9252
 1.80000    1.85     1.85   0.04356  -18.9255
 1.85000    1.85     1.85   0.04357  -18.9252
 1.90000    1.85     1.85   0.04362  -18.9255
 1.95000    1.85     1.85   0.04363  -18.9253
 2.00000    1.85     1.85   0.04365  -18.9254
 2.05000    1.85     1.85   0.04369  -18.9255
 2.10000    1.85     1.85   0.04369  -18.9255
 2.15000    1.85     1.85   0.04371  -18.9257
 2.20000    1.85     1.85   0.04373  -18.9256
 2.25000    1.85     1.85   0.04371  -18.9255
 2.30000    1.85     1.85   0.04377  -18.9253
 2.35000    1.85     1.85   0.04375  -18.9256
 2.40000    1.85     1.85   0.04377  -18.9252
 2.45000    1.85     1.85   0.04378  -18.9251
 2.50000    1.85     1.85   0.04380  -18.9250
 2.55000    1.85     1.85   0.04382  -18.9252
 2.60000    1.85     1.85   0.04379  -18.9251
 2.65000    1.85     1.85   0.04379  -18.9253
 2.70000    1.85     1.85   0.04385  -18.9251
 2.75000    1.85     1.85   0.04378  -18.9251
 2.80000    1.85     1.85   0.04384  -18.9254
 2.85000    1.85     1.85   0.04382  -18.9251
 2.90000    1.85     1.85   0.04380  -18.9251
 2.95000    1.85     1.85   0.04388  -18.9252
 3.00000    1.85     1.85   0.04392  -18.9252
 3.05000    1.85     1.85   0.04384  -18.9254
 3.10000    1.85     1.85   0.04388  -18.9253
 3.15000    1.85     1.85   0.04384  -18.9250
 3.20000    1.85     1.85   0.04386  -18.9255
 3.25000    1.85     1.85   0.04392  -18.9253
 3.30000    1.85     1.85   0.04390  -18.9254
 3.35000    1.85     1.85   0.04392  -18.9253
 3.40000    1.85     1.85   0.04391  -18.9252
 3.45000    1.85     1.85   0.04391  -18.9252
 3.50000    1.85     1.85   0.04390  -18.9254
 3.55000    1.85     1.85   0.04393  -18.9254
 3.60000    1.85     1.85   0.04391  -18.9255
 3.65000    1.85     1.85   0.04391  -18.9254
 3.70000    1.85     1.85   0.04390  -18.9257
 3.75000    1.85     1.85   0.04391  -18.9258
 3.80000    1.85     1.85   0.04392  -18.9254
 3.85000    1.85     1.85   0.04391  -18.9252
 3.90000    1.85     1.85   0.04392  -18.9255
 3.95000    1.85     1.85   0.04389  -18.9256
 4.00000    1.85     1.85   0.04391  -18.9256
 4.05000    1.85     1.85   0.04391  -18.9261
 4.10000    1.85     1.85   0.04390  -18.9257
 4.15000    1.85     1.85   0.04390  -18.9257
 4.20000    1.85     1.85   0.04391  -18.9256
 4.25000    1.85     1.85   0.04390  -18.9258
 4.30000    1.85     1.85   0.04388  -18.9257
 4.35000    1.85     1.85   0.04390  -18.9256
 4.40000    1.85     1.85   0.04390  -18.9258
 4.45000    1.85     1.85   0.04390  -18.9257
 4.50000    1.85     1.85   0.04392  -18.9259
 4.55000    1.85     1.85   0.04387  -18.9260
 4.60000    1.85     1.85   0.04394  -18.9258
 4.65000    1.85     1.85   0.04391  -18.9258
 4.70000    1.85     1.85   0.04392  -18.9259
 4.75000    1.85     1.85   0.04391  -18.9257
 4.80000    1.85     1.85   0.04391  -18.9254
 4.85000    1.85     1.85   0.04390  -18.9250
 4.90000    1.85     1.85   0.04390  -18.9251
 4.95000    1.85     1.85   0.04388  -18.9254
 5.00000    1.85     1.85   0.04389  -18.9253
 5.05000    1.85     1.85   0.04389  -18.9253
 5.10000    1.85     1.85   0.04391  -18.9253
 5.15000    1.85     1.85   0.04391  -18.9256
 5.20000    1.85     1.85   0.04389  -18.9254
 5.25000    1.85     1.85   0.04389  -18.9253
 5.30000    1.85     1.85   0.04383  -18.9256
 5.35000    1.85     1.85   0.04391  -18.9255
 5.40000    1.85     1.85   0.04390  -18.9254
 5.45000    1.85     1.85   0.04388  -18.9255
 5.50000    1.85     1.85   0.04390  -18.9255
 5.55000    1.85     1.85   0.04386  -18.9254
 5.60000    1.85     1.85   0.04389  -18.9254
 5.65000    1.85     1.85   0.04388  -18.9256
 5.70000    1.85     1.85   0.04386  -18.9257
 5.75000    1.85     1.85   0.04386  -18.9257
 5.80000    1.85     1.85   0.04389  -18.9257
 5.85000    1.85     1.85   0.04386  -18.9254
 5.90000    1.85     1.85   0.04388  -18.9255
 5.95000    1.85     1.85   0.04388  -18.9256
 6.00000    1.85     1.85   0.04387  -18.9256
 6.05000    1.85     1.85   0.04388  -18.9257
 6.10000    1.85     1.85   0.04385  -18.9258
 6.15000    1.85     1.85   0.04385  -18.9255
 6.20000    1.85     1.85   0.04386  -18.9255
 6.25000    1.85     1.85   0.04385  -18.9253
 6.30000    1.85     1.85   0.04383  -18.9252
 6.35000    1.85     1.85   0.04384  -18.9251
 6.40000    1.85     1.85   0.04384  -18.9252
 6.45000    1.85     1.85   0.04381  -18.9254
 6.50000    1.85     1.85   0.04382  -18.9253
 6.55000    1.85     1.85   0.04380  -18.9253
 6.60000    1.85     1.85   0.04381  -18.9254
 6.65000    1.85     1.85   0.04380  -18.9256
 6.70000    1.85     1.85   0.04377  -18.9255
 6.75000    1.85     1.85   0.04381  -18.9252
 6.80000    1.85     1.85   0.04381  -18.9252
 6.85000    1.85     1.85   0.04378  -18.9249
 6.90000    1.85     1.85   0.04378  -18.9250
 6.95000    1.85     1.85   0.04377  -18.9251
 7.00000    1.85     1.85   0.04381  -18.9253
 7.00000    1.85     1.85   0.04377  -18.9251
 6.95000    1.85     1.85   0.04379  -18.9253
 6.90000    1.85     1.85   0.04379  -18.9253
 6.85000    1.85     1.85   0.04381  -18.9251
 6.80000    1.85     1.85   0.04381  -18.9251
 6.75000    1.85     1.85   0.04380  -18.9253
 6.70000    1.85     1.85   0.04379  -18.9251
 6.65000    1.85     1.85   0.04382  -18.9250
 6.60000    1.85     1.85   0.04380  -18.9253
 6.55000    1.85     1.85   0.04382  -18.9253
 6.50000    1.85     1.85   0.04384  -18.9255
 6.45000    1.85     1.85   0.04383  -18.9256
 6.40000    1.85     1.85   0.04383  -18.9254
 6.35000    1.85     1.85   0.04385  -18.9255
 6.30000    1.85     1.85   0.04385  -18.9253
 6.25000    1.85     1.85   0.04387  -18.9254
 6.20000    1.85     1.85   0.04386  -18.9256
 6.15000    1.85     1.85   0.04385  -18.9256
 6.10000    1.85     1.85   0.04386  -18.9253
 6.05000    1.85     1.85   0.04387  -18.9253
 6.00000    1.85     1.85   0.04385  -18.9253
 5.95000    1.85     1.85   0.04386  -18.9255
 5.90000    1.85     1.85   0.04391  -18.9254
 5.85000    1.85     1.85   0.04387  -18.9256
 5.80000    1.85     1.85   0.04391  -18.9254
 5.75000    1.85     1.85   0.04391  -18.9253
 5.70000    1.85     1.85   0.04390  -18.9257
 5.65000    1.85     1.85   0.04392  -18.9259
 5.60000    1.85     1.85   0.04393  -18.9256
 5.55000    1.85     1.85   0.04394  -18.9257
 5.50000    1.85     1.85   0.04395  -18.9259
 5.45000    1.85     1.85   0.04394  -18.9258
 5.40000    1.85     1.85   0.04397  -18.9259
 5.35000    1.85     1.85   0.04396  -18.9254
 5.30000    1.85     1.85   0.04398  -18.9254
 5.25000    1.85     1.85   0.04395  -18.9254
 5.20000    1.85     1.85   0.04397  -18.9253
 5.15000    1.85     1.85   0.04395  -18.9256
 5.10000    1.85     1.85   0.04399  -18.9256
 5.05000    1.85     1.85   0.04396  -18.9258
 5.00000    1.85     1.85   0.04398  -18.9258
 4.95000    1.85     1.85   0.04403  -18.9259
 4.90000    1.85     1.85   0.04400  -18.9258
 4.85000    1.85     1.85   0.04403  -18.9258
 4.80000    1.85     1.85   0.04401  -18.9258
 4.75000    1.85     1.85   0.04401  -18.9256
 4.70000    1.85     1.85   0.04404  -18.9257
 4.65000    1.85     1.85   0.04405  -18.9257
 4.60000    1.85     1.85   0.04402  -18.9257
 4.55000    1.85     1.85   0.04404  -18.9256
 4.50000    1.85     1.85   0.04405  -18.9258
 4.45000    1.85     1.85   0.04404  -18.9258
 4.40000    1.85     1.85   0.04407  -18.9258
 4.35000    1.85     1.85   0.04403  -18.9258
 4.30000    1.85     1.85   0.04406  -18.9259
 4.25000    1.85     1.85   0.04406  -18.9259
 4.20000    1.85     1.85   0.04407  -18.9256
 4.15000    1.85     1.85   0.04408  -18.9256
 4.10000    1.85     1.85   0.04407  -18.9258
 4.05000    1.85     1.85   0.04406  -18.9259
 4.00000    1.85     1.85   0.04405  -18.9260
 3.95000    1.85     1.85   0.04409  -18.9259
 3.90000    1.85     1.85   0.04407  -18.9258
 3.85000    1.85     1.85   0.04406  -18.9254
 3.80000    1.85     1.85   0.04408  -18.9260
 3.75000    1.85     1.85   0.04408  -18.9259
 3.70000    1.85     1.85   0.04411  -18.9257
 3.65000    1.85     1.85   0.04407  -18.9257
 3.60000    1.85     1.85   0.04408  -18.9255
 3.55000    1.85     1.85   0.04410  -18.9255
 3.50000    1.85     1.85   0.04406  -18.9258
 3.45000    1.85     1.85   0.04411  -18.9261
 3.40000    1.85     1.85   0.04408  -18.9258
 3.35000    1.85     1.85   0.04412  -18.9259
 3.30000    1.85     1.85   0.04410  -18.9259
 3.25000    1.85     1.85   0.04412  -18.9258
 3.20000    1.85     1.85   0.04409  -18.9260
 3.15000    1.85     1.85   0.04409  -18.9259
 3.10000    1.85     1.85   0.04412  -18.9263
 3.05000    1.85     1.85   0.04407  -18.9261
 3.00000    1.85     1.85   0.04409  -18.9258
 2.95000    1.85     1.85   0.04408  -18.9263
 2.90000    1.85     1.85   0.04408  -18.9260
 2.85000    1.85     1.85   0.04410  -18.9260
 2.80000    1.85     1.85   0.04410  -18.9264
 2.75000    1.85     1.85   0.04406  -18.9265
 2.70000    1.85     1.85   0.04408  -18.9264
 2.65000    1.85     1.85   0.04405  -18.9266
 2.60000    1.85     1.85   0.04405  -18.9264
 2.55000    1.85     1.85   0.04406  -18.9264
 2.50000    1.85     1.85   0.04401  -18.9260
 2.45000    1.85     1.85   0.04401  -18.9259
 2.40000    1.85     1.85   0.04399  -18.9259
 2.35000    1.85     1.85   0.04397  -18.9261
 2.30000    1.85     1.85   0.04398  -18.9259
 2.25000    1.85     1.85   0.04394  -18.9261
 2.20000    1.85     1.85   0.04397  -18.9258
 2.15000    1.85     1.85   0.04393  -18.9262
 2.10000    1.85     1.85   0.04392  -18.9262
 2.05000    1.85     1.85   0.04392  -18.9260
 2.00000    1.85     1.85   0.04388  -18.9261
 1.95000    1.85     1.85   0.04385  -18.9259
 1.90000    1.85     1.85   0.04383  -18.9253
 1.85000    1.85     1.85   0.04378  -18.9255
 1.80000    1.85     1.85   0.04380  -18.9259
 1.75000    1.85     1.85   0.04371  -18.9259
 1.70000    1.85     1.85   0.04369  -18.9259
 1.65000    1.85     1.85   0.04362  -18.9257
 1.60000    1.85     1.85   0.04356  -18.9254
 1.55000    1.85     1.85   0.04350  -18.9251
 1.50000    1.85     1.85   0.04339  -18.9253
 1.45000    1.85     1.85   0.04330  -18.9247
 1.40000    1.85     1.85   0.04317  -18.9242
 1.35000    1.85     1.85   0.04309  -18.9235
 1.30000    1.85     1.85   0.04300  -18.9225
 1.25000    1.85     1.85   0.04290  -18.9214
 1.20000    1.85     1.85   0.04289  -18.9201
 1.15000    1.85     1.85   0.04295  -18.9186
 1.10000    1.85     1.85   0.04302  -18.9166
 1.05000    1.85     1.85   0.04324  -18.9149
 1.00000    1.85     1.85   0.04360  -18.9138
 0.95000    1.85     1.85   0.04400  -18.9133
 0.90000    1.85     1.85   0.04444  -18.9133
 0.85000    1.85     1.85   0.04485  -18.9138
 0.80000    1.85     1.85   0.04517  -18.9144
 0.75000    1.85     1.85   0.04531  -18.9153
 0.70000    1.85     1.85   0.04537  -18.9161
 0.65000    1.85     1.85   0.04539  -18.9169
 0.60000    1.85     1.85   0.04548  -18.9176
 0.55000    1.85     1.85   0.04552  -18.9180
 0.50000    1.85     1.85   0.04555  -18.9180
 0.45000    1.85     1.85   0.04559  -18.9182
 0.40000    1.85     1.85   0.04566  -18.9182
 0.35000    1.85     1.85   0.04566  -18.9185
 0.30000    1.85     1.85   0.04569  -18.9184
 0.25000    1.85     1.85   0.04571  -18.9183
 0.20000    1.85     1.85   0.04573  -18.9184
 0.15000    1.85     1.85   0.04576  -18.9184
 0.10000    1.85     1.85   0.04580  -18.9183
 0.05000    1.85     1.85   0.04585  -18.9185
 -0.00000    1.85     1.85   0.04583  -18.9187
