 Field[T] Tsmpl[K] Tcntr[K] Signal   Mirror[MM]
 0.00000    1.83     1.83   0.00567  -20.3818
 0.05000    1.83     1.83   0.00566  -20.3820
 0.10000    1.83     1.83   0.00566  -20.3817
 0.15000    1.83     1.83   0.00570  -20.3813
 0.20000    1.83     1.83   0.00569  -20.3817
 0.25000    1.83     1.83   0.00570  -20.3815
 0.30000    1.83     1.83   0.00572  -20.3812
 0.35000    1.83     1.83   0.00573  -20.3808
 0.40000    1.83     1.83   0.00575  -20.3804
 0.45000    1.83     1.83   0.00577  -20.3804
 0.50000    1.83     1.83   0.00577  -20.3799
 0.55000    1.83     1.83   0.00577  -20.3799
 0.60000    1.83     1.83   0.00578  -20.3796
 0.65000    1.83     1.83   0.00580  -20.3791
 0.70000    1.83     1.83   0.00579  -20.3794
 0.75000    1.83     1.83   0.00579  -20.3793
 0.80000    1.83     1.83   0.00581  -20.3787
 0.85000    1.83     1.83   0.00581  -20.3782
 0.90000    1.83     1.83   0.00579  -20.3784
 0.95000    1.83     1.83   0.00582  -20.3779
 1.00000    1.83     1.83   0.00581  -20.3776
 1.05000    1.83     1.83   0.00581  -20.3777
 1.10000    1.83     1.83   0.00580  -20.3772
 1.15000    1.83     1.83   0.00580  -20.3769
 1.20000    1.83     1.83   0.00580  -20.3765
 1.25000    1.83     1.83   0.00580  -20.3759
 1.30000    1.83     1.83   0.00579  -20.3759
 1.35000    1.83     1.83   0.00579  -20.3756
 1.40000    1.83     1.83   0.00576  -20.3756
 1.45000    1.83     1.83   0.00581  -20.3757
 1.50000    1.83     1.83   0.00578  -20.3755
 1.55000    1.83     1.83   0.00578  -20.3754
 1.60000    1.83     1.83   0.00578  -20.3750
 1.65000    1.83     1.83   0.00579  -20.3744
 1.70000    1.83     1.83   0.00579  -20.3744
 1.75000    1.83     1.83   0.00576  -20.3741
 1.80000    1.83     1.83   0.00574  -20.3739
 1.85000    1.83     1.83   0.00571  -20.3740
 1.90000    1.83     1.83   0.00573  -20.3742
 1.95000    1.83     1.83   0.00571  -20.3745
 2.00000    1.83     1.83   0.00571  -20.3746
 2.05000    1.83     1.83   0.00570  -20.3746
 2.10000    1.83     1.83   0.00570  -20.3743
 2.15000    1.83     1.83   0.00571  -20.3745
 2.20000    1.83     1.83   0.00572  -20.3746
 2.25000    1.83     1.83   0.00573  -20.3745
 2.30000    1.83     1.83   0.00573  -20.3747
 2.35000    1.83     1.83   0.00569  -20.3749
 2.40000    1.83     1.83   0.00569  -20.3748
 2.45000    1.83     1.83   0.00570  -20.3748
 2.50000    1.83     1.83   0.00570  -20.3746
 2.55000    1.83     1.83   0.00569  -20.3744
 2.60000    1.83     1.83   0.00570  -20.3747
 2.65000    1.83     1.83   0.00571  -20.3748
 2.70000    1.83     1.83   0.00571  -20.3741
 2.75000    1.83     1.83   0.00570  -20.3740
 2.80000    1.83     1.83   0.00572  -20.3736
 2.85000    1.83     1.83   0.00571  -20.3738
 2.90000    1.83     1.83   0.00571  -20.3736
 2.95000    1.83     1.83   0.00569  -20.3736
 3.00000    1.83     1.83   0.00569  -20.3733
 3.05000    1.83     1.83   0.00569  -20.3731
 3.10000    1.83     1.83   0.00570  -20.3732
 3.15000    1.83     1.83   0.00567  -20.3732
 3.20000    1.83     1.83   0.00565  -20.3733
 3.25000    1.83     1.83   0.00564  -20.3733
 3.30000    1.83     1.83   0.00566  -20.3731
 3.35000    1.83     1.83   0.00565  -20.3734
 3.40000    1.83     1.83   0.00564  -20.3729
 3.45000    1.83     1.83   0.00565  -20.3729
 3.50000    1.83     1.83   0.00564  -20.3728
 3.55000    1.83     1.83   0.00562  -20.3727
 3.60000    1.83     1.83   0.00562  -20.3731
 3.65000    1.83     1.83   0.00562  -20.3727
 3.70000    1.83     1.83   0.00562  -20.3731
 3.75000    1.83     1.83   0.00565  -20.3730
 3.80000    1.83     1.83   0.00562  -20.3728
 3.85000    1.83     1.83   0.00561  -20.3730
 3.90000    1.83     1.83   0.00564  -20.3728
 3.95000    1.83     1.83   0.00560  -20.3728
 4.00000    1.83     1.83   0.00558  -20.3731
 4.05000    1.83     1.83   0.00557  -20.3733
 4.10000    1.83     1.83   0.00558  -20.3730
 4.15000    1.83     1.83   0.00555  -20.3725
 4.20000    1.83     1.83   0.00557  -20.3729
 4.25000    1.83     1.83   0.00556  -20.3727
 4.30000    1.83     1.83   0.00556  -20.3729
 4.35000    1.83     1.83   0.00556  -20.3729
 4.40000    1.83     1.83   0.00558  -20.3728
 4.45000    1.83     1.83   0.00559  -20.3733
 4.50000    1.83     1.83   0.00556  -20.3728
 4.55000    1.83     1.83   0.00556  -20.3732
 4.60000    1.83     1.83   0.00555  -20.3729
 4.65000    1.83     1.83   0.00555  -20.3726
 4.70000    1.83     1.83   0.00555  -20.3730
 4.75000    1.83     1.83   0.00555  -20.3729
 4.80000    1.83     1.83   0.00553  -20.3728
 4.85000    1.83     1.83   0.00556  -20.3732
 4.90000    1.83     1.83   0.00555  -20.3730
 4.95000    1.83     1.83   0.00554  -20.3730
 5.00000    1.83     1.83   0.00553  -20.3730
 5.05000    1.83     1.83   0.00552  -20.3734
 5.10000    1.83     1.83   0.00556  -20.3732
 5.15000    1.83     1.83   0.00554  -20.3732
 5.20000    1.83     1.83   0.00555  -20.3734
 5.25000    1.83     1.83   0.00556  -20.3736
 5.30000    1.83     1.83   0.00550  -20.3735
 5.35000    1.83     1.83   0.00548  -20.3733
 5.40000    1.83     1.83   0.00549  -20.3737
 5.45000    1.83     1.83   0.00549  -20.3736
 5.50000    1.83     1.83   0.00549  -20.3736
 5.55000    1.83     1.83   0.00548  -20.3735
 5.60000    1.83     1.83   0.00548  -20.3739
 5.65000    1.83     1.83   0.00548  -20.3738
 5.70000    1.83     1.83   0.00547  -20.3738
 5.75000    1.83     1.83   0.00546  -20.3735
 5.80000    1.83     1.83   0.00545  -20.3737
 5.85000    1.83     1.83   0.00547  -20.3735
 5.90000    1.83     1.83   0.00547  -20.3736
 5.95000    1.83     1.83   0.00549  -20.3739
 6.00000    1.83     1.83   0.00548  -20.3740
 6.05000    1.83     1.83   0.00547  -20.3739
 6.10000    1.83     1.83   0.00547  -20.3736
 6.15000    1.83     1.83   0.00545  -20.3737
 6.20000    1.83     1.83   0.00546  -20.3738
 6.25000    1.83     1.83   0.00547  -20.3739
 6.30000    1.83     1.83   0.00547  -20.3740
 6.35000    1.83     1.83   0.00547  -20.3740
 6.40000    1.83     1.83   0.00549  -20.3742
 6.45000    1.83     1.83   0.00546  -20.3743
 6.50000    1.83     1.83   0.00545  -20.3743
 6.55000    1.83     1.83   0.00546  -20.3742
 6.60000    1.83     1.83   0.00544  -20.3745
 6.65000    1.83     1.83   0.00543  -20.3743
 6.70000    1.83     1.83   0.00543  -20.3745
 6.75000    1.83     1.83   0.00542  -20.3745
 6.80000    1.83     1.83   0.00542  -20.3746
 6.85000    1.83     1.83   0.00543  -20.3747
 6.90000    1.83     1.83   0.00543  -20.3746
 6.95000    1.83     1.83   0.00544  -20.3747
 7.00000    1.83     1.83   0.00544  -20.3748
 7.00000    1.83     1.83   0.00542  -20.3745
 6.95000    1.83     1.83   0.00542  -20.3748
 6.90000    1.83     1.83   0.00543  -20.3746
 6.85000    1.83     1.83   0.00542  -20.3745
 6.80000    1.83     1.83   0.00543  -20.3742
 6.75000    1.83     1.83   0.00546  -20.3741
 6.70000    1.83     1.83   0.00544  -20.3739
 6.65000    1.83     1.83   0.00544  -20.3738
 6.60000    1.83     1.83   0.00543  -20.3739
 6.55000    1.83     1.83   0.00542  -20.3738
 6.50000    1.83     1.83   0.00543  -20.3737
 6.45000    1.83     1.83   0.00543  -20.3737
 6.40000    1.83     1.83   0.00541  -20.3737
 6.35000    1.83     1.83   0.00541  -20.3737
 6.30000    1.83     1.83   0.00542  -20.3736
 6.25000    1.83     1.83   0.00544  -20.3739
 6.20000    1.83     1.83   0.00547  -20.3740
 6.15000    1.83     1.83   0.00544  -20.3737
 6.10000    1.83     1.83   0.00545  -20.3736
 6.05000    1.83     1.83   0.00548  -20.3737
 6.00000    1.83     1.83   0.00545  -20.3737
 5.95000    1.83     1.83   0.00546  -20.3732
 5.90000    1.83     1.83   0.00542  -20.3732
 5.85000    1.83     1.83   0.00542  -20.3733
 5.80000    1.83     1.83   0.00544  -20.3732
 5.75000    1.83     1.83   0.00545  -20.3731
 5.70000    1.83     1.83   0.00544  -20.3729
 5.65000    1.83     1.83   0.00544  -20.3727
 5.60000    1.83     1.83   0.00546  -20.3727
 5.55000    1.83     1.83   0.00546  -20.3724
 5.50000    1.83     1.83   0.00548  -20.3722
 5.45000    1.83     1.83   0.00548  -20.3719
 5.40000    1.83     1.83   0.00550  -20.3720
 5.35000    1.83     1.83   0.00547  -20.3718
 5.30000    1.83     1.83   0.00546  -20.3721
 5.25000    1.83     1.83   0.00546  -20.3725
 5.20000    1.83     1.83   0.00545  -20.3724
 5.15000    1.83     1.83   0.00545  -20.3723
 5.10000    1.83     1.83   0.00544  -20.3722
 5.05000    1.83     1.83   0.00545  -20.3723
 5.00000    1.83     1.83   0.00545  -20.3723
 4.95000    1.83     1.83   0.00545  -20.3723
 4.90000    1.83     1.83   0.00548  -20.3724
 4.85000    1.83     1.83   0.00549  -20.3723
 4.80000    1.83     1.83   0.00548  -20.3721
 4.75000    1.83     1.83   0.00548  -20.3722
 4.70000    1.83     1.83   0.00548  -20.3724
 4.65000    1.83     1.83   0.00549  -20.3722
 4.60000    1.83     1.83   0.00548  -20.3721
 4.55000    1.83     1.83   0.00550  -20.3722
 4.50000    1.83     1.83   0.00549  -20.3722
 4.45000    1.83     1.83   0.00552  -20.3721
 4.40000    1.83     1.83   0.00549  -20.3722
 4.35000    1.83     1.83   0.00552  -20.3721
 4.30000    1.83     1.83   0.00550  -20.3721
 4.25000    1.83     1.83   0.00548  -20.3721
 4.20000    1.83     1.83   0.00551  -20.3720
 4.15000    1.83     1.83   0.00548  -20.3721
 4.10000    1.83     1.83   0.00548  -20.3723
 4.05000    1.83     1.83   0.00552  -20.3721
 4.00000    1.83     1.83   0.00550  -20.3720
 3.95000    1.83     1.83   0.00550  -20.3719
 3.90000    1.83     1.83   0.00551  -20.3720
 3.85000    1.83     1.83   0.00553  -20.3721
 3.80000    1.83     1.83   0.00554  -20.3719
 3.75000    1.83     1.83   0.00550  -20.3722
 3.70000    1.83     1.83   0.00554  -20.3722
 3.65000    1.83     1.83   0.00556  -20.3719
 3.60000    1.83     1.83   0.00555  -20.3715
 3.55000    1.83     1.83   0.00556  -20.3715
 3.50000    1.83     1.83   0.00555  -20.3717
 3.45000    1.83     1.83   0.00557  -20.3719
 3.40000    1.83     1.83   0.00556  -20.3717
 3.35000    1.83     1.83   0.00556  -20.3714
 3.30000    1.83     1.83   0.00555  -20.3716
 3.25000    1.83     1.83   0.00557  -20.3716
 3.20000    1.83     1.83   0.00556  -20.3713
 3.15000    1.83     1.83   0.00556  -20.3716
 3.10000    1.83     1.83   0.00557  -20.3717
 3.05000    1.83     1.83   0.00559  -20.3717
 3.00000    1.83     1.83   0.00560  -20.3717
 2.95000    1.83     1.83   0.00560  -20.3717
 2.90000    1.83     1.83   0.00562  -20.3719
 2.85000    1.83     1.83   0.00564  -20.3720
 2.80000    1.83     1.83   0.00563  -20.3724
 2.75000    1.83     1.83   0.00563  -20.3725
 2.70000    1.83     1.83   0.00560  -20.3721
 2.65000    1.83     1.83   0.00559  -20.3722
 2.60000    1.83     1.83   0.00561  -20.3730
 2.55000    1.83     1.83   0.00559  -20.3732
 2.50000    1.83     1.83   0.00563  -20.3731
 2.45000    1.83     1.83   0.00561  -20.3734
 2.40000    1.83     1.83   0.00559  -20.3735
 2.35000    1.83     1.83   0.00558  -20.3732
 2.30000    1.83     1.83   0.00557  -20.3731
 2.25000    1.83     1.83   0.00554  -20.3734
 2.20000    1.83     1.83   0.00555  -20.3730
 2.15000    1.83     1.83   0.00555  -20.3731
 2.10000    1.83     1.83   0.00557  -20.3732
 2.05000    1.83     1.83   0.00555  -20.3730
 2.00000    1.83     1.83   0.00556  -20.3726
 1.95000    1.83     1.83   0.00558  -20.3726
 1.90000    1.83     1.83   0.00556  -20.3725
 1.85000    1.83     1.83   0.00559  -20.3725
 1.80000    1.83     1.83   0.00560  -20.3725
 1.75000    1.83     1.83   0.00561  -20.3726
 1.70000    1.83     1.83   0.00565  -20.3728
 1.65000    1.83     1.83   0.00565  -20.3728
 1.60000    1.83     1.83   0.00566  -20.3736
 1.55000    1.83     1.83   0.00567  -20.3736
 1.50000    1.83     1.83   0.00565  -20.3739
 1.45000    1.83     1.83   0.00564  -20.3741
 1.40000    1.83     1.83   0.00565  -20.3737
 1.35000    1.83     1.83   0.00566  -20.3741
 1.30000    1.83     1.83   0.00569  -20.3742
 1.25000    1.83     1.83   0.00570  -20.3746
 1.20000    1.83     1.83   0.00569  -20.3743
 1.15000    1.83     1.83   0.00568  -20.3747
 1.10000    1.83     1.83   0.00568  -20.3749
 1.05000    1.83     1.83   0.00566  -20.3751
 1.00000    1.83     1.83   0.00564  -20.3757
 0.95000    1.83     1.83   0.00566  -20.3761
 0.90000    1.83     1.83   0.00566  -20.3763
 0.85000    1.83     1.83   0.00568  -20.3766
 0.80000    1.83     1.83   0.00567  -20.3769
 0.75000    1.83     1.83   0.00566  -20.3773
 0.70000    1.83     1.83   0.00564  -20.3776
 0.65000    1.83     1.83   0.00567  -20.3779
 0.60000    1.83     1.83   0.00561  -20.3784
 0.55000    1.83     1.83   0.00562  -20.3785
 0.50000    1.83     1.83   0.00563  -20.3787
 0.45000    1.83     1.83   0.00563  -20.3792
 0.40000    1.83     1.83   0.00563  -20.3796
 0.35000    1.83     1.83   0.00560  -20.3797
 0.30000    1.83     1.83   0.00559  -20.3802
 0.25000    1.83     1.83   0.00559  -20.3799
 0.20000    1.83     1.83   0.00559  -20.3805
 0.15000    1.83     1.83   0.00558  -20.3799
 0.10000    1.83     1.83   0.00554  -20.3800
 0.05000    1.83     1.83   0.00554  -20.3801
 -0.00000    1.83     1.83   0.00557  -20.3801
