 Field[T] Tsmpl[K] Tcntr[K] Signal   Mirror[MM]
 0.00000    1.84     1.84   0.74433  -18.4716
 0.02000    1.84     1.84   0.74501  -18.4719
 0.04000    1.84     1.84   0.74079  -18.4725
 0.06000    1.84     1.84   0.73794  -18.4730
 0.08000    1.84     1.84   0.72814  -18.4747
 0.10000    1.84     1.84   0.71767  -18.4836
 0.12000    1.84     1.84   0.71849  -18.4986
 0.14000    1.84     1.84   0.72230  -18.5031
 0.16000    1.84     1.84   0.72039  -18.5077
 0.18000    1.84     1.84   0.71699  -18.5170
 0.20000    1.84     1.84   0.71944  -18.5247
 0.22000    1.84     1.84   0.72338  -18.5278
 0.24000    1.84     1.84   0.72012  -18.5339
 0.26000    1.84     1.84   0.72298  -18.5427
 0.28000    1.84     1.84   0.72706  -18.5467
 0.30000    1.84     1.84   0.72842  -18.5513
 0.32000    1.84     1.84   0.72842  -18.5573
 0.34000    1.84     1.84   0.72991  -18.5631
 0.36000    1.84     1.84   0.73345  -18.5673
 0.38000    1.84     1.84   0.73304  -18.5717
 0.40000    1.84     1.84   0.73685  -18.5762
 0.42000    1.84     1.84   0.74134  -18.5802
 0.44000    1.84     1.84   0.74324  -18.5845
 0.46000    1.84     1.84   0.74678  -18.5877
 0.48000    1.84     1.84   0.75045  -18.5912
 0.50000    1.84     1.84   0.75602  -18.5935
 0.52000    1.84     1.84   0.75834  -18.5968
 0.54000    1.84     1.84   0.76065  -18.5978
 0.56000    1.84     1.84   0.76663  -18.5991
 0.58000    1.84     1.84   0.76990  -18.5997
 0.60000    1.84     1.84   0.77493  -18.6003
 0.62000    1.84     1.84   0.77874  -18.6019
 0.64000    1.84     1.84   0.78132  -18.6017
 0.66000    1.84     1.84   0.78581  -18.6024
 0.68000    1.84     1.84   0.78921  -18.6013
 0.70000    1.84     1.84   0.79016  -18.6006
 0.72000    1.84     1.84   0.79506  -18.6004
 0.74000    1.84     1.84   0.79342  -18.5996
 0.76000    1.84     1.84   0.79914  -18.5986
 0.78000    1.84     1.84   0.79791  -18.5995
 0.80000    1.84     1.84   0.79941  -18.5983
 0.82000    1.84     1.84   0.80213  -18.5985
 0.84000    1.84     1.84   0.80308  -18.5978
 0.86000    1.84     1.84   0.80254  -18.5974
 0.88000    1.84     1.84   0.80417  -18.5971
 0.90000    1.84     1.84   0.80702  -18.5967
 0.92000    1.84     1.84   0.80825  -18.5957
 0.94000    1.84     1.84   0.80594  -18.5959
 0.96000    1.84     1.84   0.80838  -18.5953
 0.98000    1.84     1.84   0.80757  -18.5955
 1.00000    1.84     1.84   0.81029  -18.5953
 1.02000    1.84     1.84   0.80934  -18.5954
 1.04000    1.84     1.84   0.80947  -18.5955
 1.06000    1.84     1.84   0.81138  -18.5951
 1.08000    1.84     1.84   0.81246  -18.5951
 1.10000    1.84     1.84   0.81342  -18.5941
 1.12000    1.84     1.84   0.81301  -18.5937
 1.14000    1.84     1.84   0.81274  -18.5948
 1.16000    1.84     1.84   0.81355  -18.5949
 1.18000    1.84     1.84   0.81328  -18.5933
 1.20000    1.84     1.84   0.81314  -18.5935
 1.22000    1.84     1.84   0.81410  -18.5936
 1.24000    1.84     1.84   0.81342  -18.5923
 1.26000    1.84     1.84   0.81464  -18.5926
 1.28000    1.84     1.84   0.81382  -18.5928
 1.30000    1.84     1.84   0.81682  -18.5930
 1.32000    1.84     1.84   0.81600  -18.5924
 1.34000    1.84     1.84   0.81586  -18.5924
 1.36000    1.84     1.84   0.81845  -18.5925
 1.38000    1.84     1.84   0.81709  -18.5922
 1.40000    1.84     1.84   0.81831  -18.5925
 1.42000    1.84     1.84   0.81750  -18.5927
 1.44000    1.84     1.84   0.81600  -18.5929
 1.46000    1.84     1.84   0.81627  -18.5928
 1.48000    1.84     1.84   0.81695  -18.5924
 1.50000    1.84     1.84   0.81790  -18.5919
 1.52000    1.84     1.84   0.81641  -18.5919
 1.54000    1.84     1.84   0.81736  -18.5915
 1.56000    1.84     1.84   0.81845  -18.5910
 1.58000    1.84     1.84   0.81586  -18.5913
 1.60000    1.84     1.84   0.81804  -18.5909
 1.62000    1.84     1.84   0.81736  -18.5910
 1.64000    1.84     1.84   0.81858  -18.5906
 1.66000    1.84     1.84   0.81886  -18.5907
 1.68000    1.84     1.84   0.81790  -18.5912
 1.70000    1.84     1.84   0.81967  -18.5900
 1.72000    1.84     1.84   0.81709  -18.5894
 1.74000    1.84     1.84   0.81301  -18.5905
 1.76000    1.84     1.84   0.81668  -18.5903
 1.78000    1.84     1.84   0.81695  -18.5899
 1.80000    1.84     1.84   0.81818  -18.5906
 1.82000    1.84     1.84   0.81627  -18.5899
 1.84000    1.84     1.84   0.81926  -18.5904
 1.86000    1.84     1.84   0.81709  -18.5906
 1.88000    1.84     1.84   0.81818  -18.5898
 1.90000    1.84     1.84   0.81818  -18.5895
 1.92000    1.84     1.84   0.81872  -18.5901
 1.94000    1.84     1.84   0.82022  -18.5894
 1.96000    1.84     1.84   0.82076  -18.5896
 1.98000    1.84     1.84   0.82076  -18.5889
 2.00000    1.84     1.84   0.82049  -18.5897
 2.00000    1.84     1.84   0.81858  -18.5900
 1.98000    1.84     1.84   0.82185  -18.5899
 1.96000    1.84     1.84   0.82198  -18.5896
 1.94000    1.84     1.84   0.82076  -18.5895
 1.92000    1.84     1.84   0.81913  -18.5898
 1.90000    1.84     1.84   0.81899  -18.5893
 1.88000    1.84     1.84   0.82049  -18.5901
 1.86000    1.84     1.84   0.82090  -18.5904
 1.84000    1.84     1.84   0.81926  -18.5903
 1.82000    1.84     1.84   0.82212  -18.5899
 1.80000    1.84     1.84   0.82144  -18.5903
 1.78000    1.84     1.84   0.81967  -18.5900
 1.76000    1.84     1.84   0.81899  -18.5901
 1.74000    1.84     1.84   0.81954  -18.5903
 1.72000    1.84     1.84   0.82035  -18.5898
 1.70000    1.84     1.84   0.82049  -18.5908
 1.68000    1.84     1.84   0.82185  -18.5898
 1.66000    1.84     1.84   0.82103  -18.5902
 1.64000    1.84     1.84   0.81899  -18.5897
 1.62000    1.84     1.84   0.81899  -18.5908
 1.60000    1.84     1.84   0.81518  -18.5913
 1.58000    1.84     1.84   0.81777  -18.5910
 1.56000    1.84     1.84   0.81818  -18.5911
 1.54000    1.84     1.84   0.81845  -18.5910
 1.52000    1.84     1.84   0.81858  -18.5914
 1.50000    1.84     1.84   0.81858  -18.5913
 1.48000    1.84     1.84   0.82158  -18.5916
 1.46000    1.84     1.84   0.81858  -18.5918
 1.44000    1.84     1.84   0.81926  -18.5914
 1.42000    1.84     1.84   0.81831  -18.5916
 1.40000    1.84     1.84   0.82035  -18.5914
 1.38000    1.84     1.84   0.81913  -18.5910
 1.36000    1.84     1.84   0.81858  -18.5916
 1.34000    1.84     1.84   0.81777  -18.5923
 1.32000    1.84     1.84   0.81845  -18.5919
 1.30000    1.84     1.84   0.81818  -18.5923
 1.28000    1.84     1.84   0.81641  -18.5929
 1.26000    1.84     1.84   0.81668  -18.5928
 1.24000    1.84     1.84   0.81586  -18.5927
 1.22000    1.84     1.84   0.81518  -18.5923
 1.20000    1.84     1.84   0.81668  -18.5928
 1.18000    1.84     1.84   0.81858  -18.5930
 1.16000    1.84     1.84   0.81804  -18.5929
 1.14000    1.84     1.84   0.81709  -18.5931
 1.12000    1.84     1.84   0.81573  -18.5941
 1.10000    1.84     1.84   0.81763  -18.5933
 1.08000    1.84     1.84   0.81546  -18.5939
 1.06000    1.84     1.84   0.81328  -18.5927
 1.04000    1.84     1.84   0.80906  -18.5910
 1.02000    1.84     1.84   0.81124  -18.5930
 1.00000    1.84     1.84   0.81151  -18.5959
 0.98000    1.84     1.84   0.81042  -18.5960
 0.96000    1.84     1.84   0.81042  -18.5964
 0.94000    1.84     1.84   0.81124  -18.5963
 0.92000    1.84     1.84   0.81070  -18.5962
 0.90000    1.84     1.84   0.80974  -18.5969
 0.88000    1.84     1.84   0.80784  -18.5968
 0.86000    1.84     1.84   0.80893  -18.5968
 0.84000    1.84     1.84   0.80716  -18.5970
 0.82000    1.84     1.84   0.80512  -18.5975
 0.80000    1.84     1.84   0.80281  -18.5975
 0.78000    1.84     1.84   0.79914  -18.5983
 0.76000    1.84     1.84   0.79927  -18.5985
 0.74000    1.84     1.84   0.79832  -18.5991
 0.72000    1.84     1.84   0.79465  -18.6001
 0.70000    1.84     1.84   0.79302  -18.6004
 0.68000    1.84     1.84   0.79193  -18.6006
 0.66000    1.84     1.84   0.78826  -18.5992
 0.64000    1.84     1.84   0.78785  -18.5997
 0.62000    1.84     1.84   0.78458  -18.6009
 0.60000    1.84     1.84   0.77928  -18.5993
 0.58000    1.84     1.84   0.77438  -18.5984
 0.56000    1.84     1.84   0.77017  -18.5980
 0.54000    1.84     1.84   0.77071  -18.5973
 0.52000    1.84     1.84   0.76486  -18.5954
 0.50000    1.84     1.84   0.76038  -18.5930
 0.48000    1.84     1.84   0.75684  -18.5922
 0.46000    1.84     1.84   0.75222  -18.5888
 0.44000    1.84     1.84   0.74882  -18.5852
 0.42000    1.84     1.84   0.74773  -18.5814
 0.40000    1.84     1.84   0.74623  -18.5780
 0.38000    1.84     1.84   0.74242  -18.5729
 0.36000    1.84     1.84   0.74025  -18.5691
 0.34000    1.84     1.84   0.73916  -18.5645
 0.32000    1.84     1.84   0.73508  -18.5608
 0.30000    1.84     1.84   0.73467  -18.5536
 0.28000    1.84     1.84   0.73141  -18.5494
 0.26000    1.84     1.84   0.73114  -18.5451
 0.24000    1.84     1.84   0.72556  -18.5383
 0.22000    1.84     1.84   0.72760  -18.5303
 0.20000    1.84     1.84   0.72842  -18.5265
 0.18000    1.84     1.84   0.72257  -18.5209
 0.16000    1.84     1.84   0.72257  -18.5104
 0.14000    1.84     1.84   0.72556  -18.5044
 0.12000    1.84     1.84   0.72515  -18.5002
 0.10000    1.84     1.84   0.72121  -18.4891
 0.08000    1.84     1.84   0.73114  -18.4766
 0.06000    1.84     1.84   0.73902  -18.4724
 0.04000    1.84     1.84   0.74501  -18.4718
 0.02000    1.84     1.84   0.75018  -18.4722
 -0.00000    1.84     1.84   0.75222  -18.4712
