 Field[T] Tsmpl[K] Tcntr[K] Signal   Mirror[MM]
 0.05000    1.84     1.84   0.11113  -18.8147
 0.10000    1.84     1.84   0.10892  -18.8151
 0.15000    1.84     1.84   0.10618  -18.8202
 0.20000    1.84     1.84   0.10595  -18.8244
 0.25000    1.84     1.84   0.10573  -18.8278
 0.30000    1.84     1.84   0.10447  -18.8315
 0.35000    1.84     1.84   0.10425  -18.8347
 0.40000    1.84     1.84   0.10317  -18.8392
 0.45000    1.84     1.84   0.10294  -18.8432
 0.50000    1.84     1.84   0.10263  -18.8476
 0.55000    1.84     1.84   0.10240  -18.8515
 0.60000    1.84     1.84   0.10317  -18.8560
 0.65000    1.84     1.84   0.10402  -18.8601
 0.70000    1.84     1.84   0.10582  -18.8626
 0.75000    1.84     1.84   0.10681  -18.8632
 0.80000    1.84     1.84   0.10713  -18.8635
 0.85000    1.84     1.84   0.10789  -18.8646
 0.90000    1.84     1.84   0.10843  -18.8647
 0.95000    1.84     1.84   0.10839  -18.8644
 1.00000    1.84     1.84   0.10960  -18.8650
 1.05000    1.84     1.84   0.10960  -18.8654
 1.10000    1.84     1.84   0.10978  -18.8648
 1.15000    1.84     1.84   0.10892  -18.8646
 1.20000    1.84     1.84   0.10946  -18.8642
 1.25000    1.84     1.84   0.10942  -18.8649
 1.30000    1.84     1.84   0.10969  -18.8646
 1.35000    1.84     1.84   0.11010  -18.8649
 1.40000    1.84     1.84   0.11104  -18.8647
 1.45000    1.84     1.84   0.11163  -18.8646
 1.50000    1.84     1.84   0.11095  -18.8648
 1.55000    1.84     1.84   0.11045  -18.8648
 1.60000    1.84     1.84   0.11063  -18.8644
 1.65000    1.84     1.84   0.11144  -18.8650
 1.70000    1.84     1.84   0.11050  -18.8644
 1.75000    1.84     1.84   0.11180  -18.8645
 1.80000    1.84     1.84   0.11104  -18.8640
 1.85000    1.84     1.84   0.11140  -18.8642
 1.90000    1.84     1.84   0.11153  -18.8646
 1.95000    1.84     1.84   0.11104  -18.8643
 2.00000    1.84     1.84   0.11050  -18.8644
 2.05000    1.84     1.84   0.11045  -18.8640
 2.10000    1.84     1.84   0.11045  -18.8640
 2.15000    1.84     1.84   0.11086  -18.8646
 2.20000    1.84     1.84   0.11100  -18.8645
 2.25000    1.84     1.84   0.11073  -18.8640
 2.30000    1.84     1.84   0.11045  -18.8640
 2.35000    1.84     1.84   0.11027  -18.8641
 2.40000    1.84     1.84   0.11010  -18.8640
 2.45000    1.84     1.84   0.11100  -18.8642
 2.50000    1.84     1.84   0.11059  -18.8645
 2.55000    1.84     1.84   0.11005  -18.8653
 2.60000    1.84     1.84   0.11113  -18.8655
 2.65000    1.84     1.84   0.11122  -18.8655
 2.70000    1.84     1.84   0.11149  -18.8658
 2.75000    1.84     1.84   0.11136  -18.8660
 2.80000    1.84     1.84   0.11176  -18.8657
 2.85000    1.84     1.84   0.11068  -18.8644
 2.90000    1.84     1.84   0.11126  -18.8643
 2.95000    1.84     1.84   0.11131  -18.8643
 3.00000    1.84     1.84   0.11073  -18.8644
 3.05000    1.84     1.84   0.11163  -18.8644
 3.10000    1.84     1.84   0.11104  -18.8641
 3.15000    1.84     1.84   0.10911  -18.8645
 3.20000    1.84     1.84   0.10996  -18.8643
 3.25000    1.84     1.84   0.10974  -18.8633
 3.30000    1.84     1.84   0.10942  -18.8621
 3.35000    1.84     1.84   0.11037  -18.8622
 3.40000    1.84     1.84   0.11045  -18.8626
 3.45000    1.84     1.84   0.11149  -18.8629
 3.50000    1.84     1.84   0.11140  -18.8640
 3.55000    1.84     1.84   0.11095  -18.8641
 3.60000    1.84     1.84   0.11140  -18.8638
 3.65000    1.84     1.84   0.11153  -18.8636
 3.70000    1.84     1.84   0.11014  -18.8636
 3.75000    1.84     1.84   0.11100  -18.8641
 3.80000    1.84     1.84   0.11104  -18.8650
 3.85000    1.84     1.84   0.11037  -18.8645
 3.90000    1.84     1.84   0.11023  -18.8645
 3.95000    1.84     1.84   0.11014  -18.8647
 4.00000    1.84     1.84   0.10969  -18.8643
 4.05000    1.84     1.84   0.10987  -18.8644
 4.10000    1.84     1.84   0.10974  -18.8644
 4.15000    1.84     1.84   0.10951  -18.8648
 4.20000    1.84     1.84   0.11059  -18.8650
 4.25000    1.84     1.84   0.11104  -18.8648
 4.30000    1.84     1.84   0.11059  -18.8644
 4.35000    1.84     1.84   0.11068  -18.8642
 4.40000    1.84     1.84   0.11032  -18.8641
 4.45000    1.84     1.84   0.10996  -18.8643
 4.50000    1.84     1.84   0.10978  -18.8640
 4.55000    1.84     1.84   0.10942  -18.8647
 4.60000    1.84     1.84   0.10942  -18.8644
 4.65000    1.84     1.84   0.10956  -18.8641
 4.70000    1.84     1.84   0.11023  -18.8646
 4.75000    1.84     1.84   0.10924  -18.8641
 4.80000    1.84     1.84   0.10956  -18.8642
 4.85000    1.84     1.84   0.10978  -18.8644
 4.90000    1.84     1.84   0.10942  -18.8645
 4.95000    1.84     1.84   0.10978  -18.8642
 5.00000    1.84     1.84   0.11037  -18.8645
 5.05000    1.84     1.84   0.10951  -18.8643
 5.10000    1.84     1.84   0.10924  -18.8680
 5.15000    1.84     1.84   0.10884  -18.8708
 5.20000    1.84     1.84   0.10911  -18.8705
 5.25000    1.84     1.84   0.10942  -18.8708
 5.30000    1.84     1.84   0.10933  -18.8708
 5.35000    1.84     1.84   0.10812  -18.8712
 5.40000    1.84     1.84   0.10807  -18.8712
 5.45000    1.84     1.84   0.10829  -18.8711
 5.50000    1.84     1.84   0.10852  -18.8709
 5.55000    1.84     1.84   0.10906  -18.8706
 5.60000    1.84     1.84   0.10852  -18.8711
 5.65000    1.84     1.84   0.10915  -18.8710
 5.70000    1.84     1.84   0.10915  -18.8711
 5.75000    1.84     1.84   0.10870  -18.8709
 5.80000    1.84     1.84   0.10924  -18.8712
 5.85000    1.84     1.84   0.10816  -18.8701
 5.90000    1.84     1.84   0.10789  -18.8712
 5.95000    1.84     1.84   0.10748  -18.8713
 6.00000    1.84     1.84   0.10789  -18.8716
 6.05000    1.84     1.84   0.10771  -18.8712
 6.10000    1.84     1.84   0.10753  -18.8707
 6.15000    1.84     1.84   0.10676  -18.8711
 6.20000    1.84     1.84   0.10672  -18.8713
 6.25000    1.84     1.84   0.10623  -18.8708
 6.30000    1.84     1.84   0.10654  -18.8712
 6.35000    1.84     1.84   0.10735  -18.8711
 6.40000    1.84     1.84   0.10703  -18.8711
 6.45000    1.84     1.84   0.10767  -18.8711
 6.50000    1.84     1.84   0.10780  -18.8709
 6.55000    1.84     1.84   0.10758  -18.8708
 6.60000    1.84     1.84   0.10762  -18.8708
 6.65000    1.84     1.84   0.10852  -18.8706
 6.70000    1.84     1.84   0.10821  -18.8706
 6.75000    1.84     1.84   0.10726  -18.8706
 6.80000    1.84     1.84   0.10744  -18.8705
 6.85000    1.84     1.84   0.10739  -18.8703
 6.90000    1.84     1.84   0.10524  -18.8669
 6.95000    1.84     1.84   0.10595  -18.8686
 7.00000    1.84     1.84   0.10623  -18.8707
 7.00000    1.84     1.84   0.10595  -18.8714
 6.95000    1.84     1.84   0.10600  -18.8702
 6.90000    1.84     1.84   0.10605  -18.8707
 6.85000    1.84     1.84   0.10650  -18.8705
 6.80000    1.84     1.84   0.10726  -18.8704
 6.75000    1.84     1.84   0.10717  -18.8699
 6.70000    1.84     1.84   0.10744  -18.8701
 6.65000    1.84     1.84   0.10798  -18.8702
 6.60000    1.84     1.84   0.10915  -18.8700
 6.55000    1.84     1.84   0.10928  -18.8705
 6.50000    1.84     1.84   0.10888  -18.8708
 6.45000    1.84     1.84   0.10852  -18.8705
 6.40000    1.84     1.84   0.10915  -18.8698
 6.35000    1.84     1.84   0.10946  -18.8700
 6.30000    1.84     1.84   0.10951  -18.8706
 6.25000    1.84     1.84   0.10924  -18.8699
 6.20000    1.84     1.84   0.10924  -18.8701
 6.15000    1.84     1.84   0.10915  -18.8696
 6.10000    1.84     1.84   0.10852  -18.8695
 6.05000    1.84     1.84   0.10861  -18.8696
 6.00000    1.84     1.84   0.10933  -18.8690
 5.95000    1.84     1.84   0.10901  -18.8693
 5.90000    1.84     1.84   0.10956  -18.8693
 5.85000    1.84     1.84   0.10951  -18.8691
 5.80000    1.84     1.84   0.10991  -18.8694
 5.75000    1.84     1.84   0.11090  -18.8689
 5.70000    1.84     1.84   0.11068  -18.8694
 5.65000    1.84     1.84   0.11090  -18.8693
 5.60000    1.84     1.84   0.11136  -18.8687
 5.55000    1.84     1.84   0.11194  -18.8690
 5.50000    1.84     1.84   0.11217  -18.8686
 5.45000    1.84     1.84   0.11217  -18.8690
 5.40000    1.84     1.84   0.11180  -18.8688
 5.35000    1.84     1.84   0.11153  -18.8677
 5.30000    1.84     1.84   0.11167  -18.8678
 5.25000    1.84     1.84   0.11163  -18.8688
 5.20000    1.84     1.84   0.11122  -18.8688
 5.15000    1.84     1.84   0.11095  -18.8687
 5.10000    1.84     1.84   0.11118  -18.8688
 5.05000    1.84     1.84   0.11185  -18.8687
 5.00000    1.84     1.84   0.11208  -18.8690
 4.95000    1.84     1.84   0.11316  -18.8690
 4.90000    1.84     1.84   0.11356  -18.8693
 4.85000    1.84     1.84   0.11356  -18.8690
 4.80000    1.84     1.84   0.11424  -18.8686
 4.75000    1.84     1.84   0.11509  -18.8691
 4.70000    1.84     1.84   0.11536  -18.8695
 4.65000    1.84     1.84   0.11437  -18.8696
 4.60000    1.84     1.84   0.11419  -18.8698
 4.55000    1.84     1.84   0.11388  -18.8694
 4.50000    1.84     1.84   0.11424  -18.8695
 4.45000    1.84     1.84   0.11487  -18.8697
 4.40000    1.84     1.84   0.11446  -18.8706
 4.35000    1.84     1.84   0.11396  -18.8704
 4.30000    1.84     1.84   0.11374  -18.8696
 4.25000    1.84     1.84   0.11347  -18.8702
 4.20000    1.84     1.84   0.11378  -18.8702
 4.15000    1.84     1.84   0.11370  -18.8703
 4.10000    1.84     1.84   0.11513  -18.8699
 4.05000    1.84     1.84   0.11513  -18.8699
 4.00000    1.84     1.84   0.11518  -18.8696
 3.95000    1.84     1.84   0.11505  -18.8695
 3.90000    1.84     1.84   0.11441  -18.8685
 3.85000    1.84     1.84   0.11477  -18.8685
 3.80000    1.84     1.84   0.11554  -18.8687
 3.75000    1.84     1.84   0.11464  -18.8686
 3.70000    1.84     1.84   0.11527  -18.8686
 3.65000    1.84     1.84   0.11554  -18.8681
 3.60000    1.84     1.84   0.11603  -18.8687
 3.55000    1.84     1.84   0.11581  -18.8682
 3.50000    1.84     1.84   0.11603  -18.8690
 3.45000    1.84     1.84   0.11594  -18.8684
 3.40000    1.84     1.84   0.11576  -18.8687
 3.35000    1.84     1.84   0.11617  -18.8688
 3.30000    1.84     1.84   0.11608  -18.8684
 3.25000    1.84     1.84   0.11626  -18.8688
 3.20000    1.84     1.84   0.11617  -18.8670
 3.15000    1.84     1.84   0.11649  -18.8668
 3.10000    1.84     1.84   0.11667  -18.8671
 3.05000    1.84     1.84   0.11603  -18.8673
 3.00000    1.84     1.84   0.11667  -18.8670
 2.95000    1.84     1.84   0.11599  -18.8664
 2.90000    1.84     1.84   0.11590  -18.8661
 2.85000    1.84     1.84   0.11594  -18.8652
 2.80000    1.84     1.84   0.11572  -18.8644
 2.75000    1.84     1.84   0.11576  -18.8651
 2.70000    1.84     1.84   0.11630  -18.8649
 2.65000    1.84     1.84   0.11608  -18.8646
 2.60000    1.84     1.84   0.11540  -18.8647
 2.55000    1.84     1.84   0.11523  -18.8648
 2.50000    1.84     1.84   0.11603  -18.8643
 2.45000    1.84     1.84   0.11581  -18.8641
 2.40000    1.84     1.84   0.11590  -18.8643
 2.35000    1.84     1.84   0.11603  -18.8641
 2.30000    1.84     1.84   0.11613  -18.8641
 2.25000    1.84     1.84   0.11671  -18.8612
 2.20000    1.84     1.84   0.11707  -18.8616
 2.15000    1.84     1.84   0.11725  -18.8612
 2.10000    1.84     1.84   0.11662  -18.8611
 2.05000    1.84     1.84   0.11797  -18.8613
 2.00000    1.84     1.84   0.11792  -18.8619
 1.95000    1.84     1.84   0.11784  -18.8609
 1.90000    1.84     1.84   0.11842  -18.8611
 1.85000    1.84     1.84   0.11828  -18.8609
 1.80000    1.84     1.84   0.11828  -18.8614
 1.75000    1.84     1.84   0.11815  -18.8609
 1.70000    1.84     1.84   0.11797  -18.8614
 1.65000    1.84     1.84   0.11779  -18.8614
 1.60000    1.84     1.84   0.11770  -18.8609
 1.55000    1.84     1.84   0.11820  -18.8608
 1.50000    1.84     1.84   0.11784  -18.8607
 1.45000    1.84     1.84   0.11712  -18.8610
 1.40000    1.84     1.84   0.11743  -18.8608
 1.35000    1.84     1.84   0.11797  -18.8616
 1.30000    1.84     1.84   0.11734  -18.8604
 1.25000    1.84     1.84   0.11757  -18.8615
 1.20000    1.84     1.84   0.11784  -18.8619
 1.15000    1.84     1.84   0.11784  -18.8614
 1.10000    1.84     1.84   0.11860  -18.8617
 1.05000    1.84     1.84   0.11820  -18.8618
 1.00000    1.84     1.84   0.11761  -18.8613
 0.95000    1.84     1.84   0.11770  -18.8611
 0.90000    1.84     1.84   0.11797  -18.8599
 0.85000    1.84     1.84   0.11662  -18.8601
 0.80000    1.84     1.84   0.11603  -18.8589
 0.75000    1.84     1.84   0.11550  -18.8592
 0.70000    1.84     1.84   0.11410  -18.8578
 0.65000    1.84     1.84   0.11356  -18.8568
 0.60000    1.84     1.84   0.11189  -18.8530
 0.55000    1.84     1.84   0.10924  -18.8489
 0.50000    1.84     1.84   0.11010  -18.8439
 0.45000    1.84     1.84   0.10978  -18.8393
 0.40000    1.84     1.84   0.10987  -18.8344
 0.35000    1.84     1.84   0.11050  -18.8304
 0.30000    1.84     1.84   0.11149  -18.8273
 0.25000    1.84     1.84   0.11248  -18.8238
 0.20000    1.84     1.84   0.11243  -18.8193
 0.15000    1.84     1.84   0.11410  -18.8161
 0.10000    1.84     1.84   0.11572  -18.8097
 0.05000    1.84     1.84   0.11757  -18.8087
 -0.00000    1.84     1.84   0.11896  -18.8090
 -0.05000    1.84     1.84   0.11874  -18.8086
 -0.10000    1.84     1.84   0.11599  -18.8086
 -0.15000    1.84     1.84   0.11392  -18.8147
 -0.20000    1.84     1.84   0.11370  -18.8180
 -0.25000    1.84     1.84   0.11271  -18.8221
 -0.30000    1.84     1.84   0.11275  -18.8261
 -0.35000    1.84     1.84   0.11203  -18.8291
 -0.40000    1.84     1.84   0.11217  -18.8331
 -0.45000    1.84     1.84   0.11158  -18.8376
 -0.50000    1.84     1.84   0.11158  -18.8425
 -0.55000    1.84     1.84   0.11235  -18.8471
 -0.60000    1.84     1.84   0.11329  -18.8514
 -0.65000    1.84     1.84   0.11406  -18.8541
 -0.70000    1.84     1.84   0.11513  -18.8553
 -0.75000    1.84     1.84   0.11680  -18.8564
 -0.80000    1.84     1.84   0.11806  -18.8567
 -0.85000    1.84     1.84   0.11878  -18.8572
 -0.90000    1.84     1.84   0.12080  -18.8582
 -0.95000    1.84     1.84   0.12171  -18.8584
 -1.00000    1.84     1.84   0.12117  -18.8582
 -1.05000    1.84     1.84   0.12117  -18.8586
 -1.10000    1.84     1.84   0.12211  -18.8584
 -1.15000    1.84     1.84   0.12242  -18.8585
 -1.20000    1.84     1.84   0.12296  -18.8580
 -1.25000    1.84     1.84   0.12391  -18.8583
 -1.30000    1.84     1.84   0.12423  -18.8584
 -1.35000    1.84     1.84   0.12445  -18.8580
 -1.40000    1.84     1.84   0.12387  -18.8583
 -1.45000    1.84     1.84   0.12472  -18.8583
 -1.50000    1.84     1.84   0.12549  -18.8581
 -1.55000    1.84     1.84   0.12612  -18.8581
 -1.60000    1.84     1.84   0.12598  -18.8577
 -1.65000    1.84     1.84   0.12616  -18.8579
 -1.70000    1.84     1.84   0.12679  -18.8582
 -1.75000    1.84     1.84   0.12643  -18.8582
 -1.80000    1.84     1.84   0.12629  -18.8580
 -1.85000    1.84     1.84   0.12634  -18.8583
 -1.90000    1.84     1.84   0.12746  -18.8585
 -1.95000    1.84     1.84   0.12837  -18.8587
 -2.00000    1.84     1.84   0.12810  -18.8581
 -2.05000    1.84     1.84   0.12827  -18.8582
 -2.10000    1.84     1.84   0.12841  -18.8580
 -2.15000    1.84     1.84   0.12863  -18.8581
 -2.20000    1.84     1.84   0.12841  -18.8572
 -2.25000    1.84     1.84   0.12913  -18.8581
 -2.30000    1.84     1.84   0.12949  -18.8582
 -2.35000    1.84     1.84   0.12931  -18.8591
 -2.40000    1.84     1.84   0.12940  -18.8590
 -2.45000    1.84     1.84   0.13021  -18.8588
 -2.50000    1.84     1.84   0.13003  -18.8585
 -2.55000    1.84     1.84   0.13039  -18.8592
 -2.60000    1.84     1.84   0.13062  -18.8592
 -2.65000    1.84     1.84   0.13035  -18.8591
 -2.70000    1.84     1.84   0.13062  -18.8598
 -2.75000    1.84     1.84   0.13183  -18.8600
 -2.80000    1.84     1.84   0.13138  -18.8586
 -2.85000    1.84     1.84   0.13161  -18.8593
 -2.90000    1.84     1.84   0.13178  -18.8591
 -2.95000    1.84     1.84   0.13102  -18.8592
 -3.00000    1.84     1.84   0.13187  -18.8586
 -3.05000    1.84     1.84   0.13224  -18.8584
 -3.10000    1.84     1.84   0.13277  -18.8583
 -3.15000    1.84     1.84   0.13250  -18.8582
 -3.20000    1.84     1.84   0.13192  -18.8579
 -3.25000    1.84     1.84   0.13260  -18.8580
 -3.30000    1.84     1.84   0.13192  -18.8579
 -3.35000    1.84     1.84   0.13224  -18.8577
 -3.40000    1.84     1.84   0.13233  -18.8581
 -3.45000    1.84     1.84   0.13246  -18.8579
 -3.50000    1.84     1.84   0.13286  -18.8577
 -3.55000    1.84     1.84   0.13187  -18.8575
 -3.60000    1.84     1.84   0.13237  -18.8577
 -3.65000    1.84     1.84   0.13264  -18.8574
 -3.70000    1.84     1.84   0.13250  -18.8575
 -3.75000    1.84     1.84   0.13277  -18.8576
 -3.80000    1.84     1.84   0.13300  -18.8567
 -3.85000    1.84     1.84   0.13282  -18.8570
 -3.90000    1.84     1.84   0.13295  -18.8571
 -3.95000    1.84     1.84   0.13291  -18.8577
 -4.00000    1.84     1.84   0.13250  -18.8574
 -4.05000    1.84     1.84   0.13336  -18.8576
 -4.10000    1.84     1.84   0.13363  -18.8572
 -4.15000    1.84     1.84   0.13363  -18.8573
 -4.20000    1.84     1.84   0.13363  -18.8573
 -4.25000    1.84     1.84   0.13363  -18.8568
 -4.30000    1.84     1.84   0.13453  -18.8569
 -4.35000    1.84     1.84   0.13408  -18.8573
 -4.40000    1.84     1.84   0.13444  -18.8574
 -4.45000    1.84     1.84   0.13462  -18.8569
 -4.50000    1.84     1.84   0.13426  -18.8574
 -4.55000    1.84     1.84   0.13435  -18.8577
 -4.60000    1.84     1.84   0.13412  -18.8566
 -4.65000    1.84     1.84   0.13458  -18.8568
 -4.70000    1.84     1.84   0.13408  -18.8563
 -4.75000    1.84     1.84   0.13453  -18.8564
 -4.80000    1.84     1.84   0.13417  -18.8561
 -4.85000    1.84     1.84   0.13453  -18.8561
 -4.90000    1.84     1.84   0.13426  -18.8562
 -4.95000    1.84     1.84   0.13449  -18.8559
 -5.00000    1.84     1.84   0.13485  -18.8567
 -5.05000    1.84     1.84   0.13489  -18.8562
 -5.10000    1.84     1.84   0.13548  -18.8565
 -5.15000    1.84     1.84   0.13615  -18.8562
 -5.20000    1.84     1.84   0.13656  -18.8557
 -5.25000    1.84     1.84   0.13570  -18.8556
 -5.30000    1.84     1.84   0.13615  -18.8560
 -5.35000    1.84     1.84   0.13674  -18.8548
 -5.40000    1.84     1.84   0.13453  -18.8526
 -5.45000    1.84     1.84   0.13511  -18.8539
 -5.50000    1.84     1.84   0.13557  -18.8560
 -5.55000    1.84     1.84   0.13570  -18.8544
 -5.60000    1.84     1.84   0.13615  -18.8551
 -5.65000    1.84     1.84   0.13606  -18.8560
 -5.70000    1.84     1.84   0.13615  -18.8566
 -5.75000    1.84     1.84   0.13669  -18.8563
 -5.80000    1.84     1.84   0.13700  -18.8565
 -5.85000    1.84     1.84   0.13620  -18.8564
 -5.90000    1.84     1.84   0.13665  -18.8562
 -5.95000    1.84     1.84   0.13656  -18.8561
 -6.00000    1.84     1.84   0.13719  -18.8559
 -6.05000    1.84     1.84   0.13782  -18.8560
 -6.10000    1.84     1.84   0.13615  -18.8580
 -6.15000    1.84     1.84   0.13683  -18.8578
 -6.20000    1.84     1.84   0.13633  -18.8585
 -6.25000    1.84     1.84   0.13597  -18.8579
 -6.30000    1.84     1.84   0.13606  -18.8572
 -6.35000    1.84     1.84   0.13561  -18.8563
 -6.40000    1.84     1.84   0.13579  -18.8566
 -6.45000    1.84     1.84   0.13611  -18.8559
 -6.50000    1.84     1.84   0.13620  -18.8562
 -6.55000    1.84     1.84   0.13548  -18.8562
 -6.60000    1.84     1.84   0.13683  -18.8577
 -6.65000    1.84     1.84   0.13710  -18.8575
 -6.70000    1.84     1.84   0.13719  -18.8571
 -6.75000    1.84     1.84   0.13714  -18.8576
 -6.80000    1.84     1.84   0.13777  -18.8572
 -6.85000    1.84     1.84   0.13831  -18.8569
 -6.90000    1.84     1.84   0.13759  -18.8581
 -6.95000    1.84     1.84   0.13854  -18.8583
 -7.00000    1.84     1.84   0.13862  -18.8579
 -7.00000    1.84     1.84   0.13826  -18.8589
 -6.95000    1.84     1.84   0.13750  -18.8586
 -6.90000    1.84     1.84   0.13764  -18.8585
 -6.85000    1.84     1.84   0.13813  -18.8583
 -6.80000    1.84     1.84   0.13809  -18.8581
 -6.75000    1.84     1.84   0.13844  -18.8590
 -6.70000    1.84     1.84   0.13705  -18.8579
 -6.65000    1.84     1.84   0.13764  -18.8582
 -6.60000    1.84     1.84   0.13826  -18.8584
 -6.55000    1.84     1.84   0.13736  -18.8583
 -6.50000    1.84     1.84   0.13759  -18.8584
 -6.45000    1.84     1.84   0.13782  -18.8585
 -6.40000    1.84     1.84   0.13799  -18.8584
 -6.35000    1.84     1.84   0.13786  -18.8585
 -6.30000    1.84     1.84   0.13678  -18.8577
 -6.25000    1.84     1.84   0.13637  -18.8586
 -6.20000    1.84     1.84   0.13566  -18.8580
 -6.15000    1.84     1.84   0.13628  -18.8583
 -6.10000    1.84     1.84   0.13624  -18.8583
 -6.05000    1.84     1.84   0.13557  -18.8577
 -6.00000    1.84     1.84   0.13611  -18.8580
 -5.95000    1.84     1.84   0.13566  -18.8580
 -5.90000    1.84     1.84   0.13566  -18.8579
 -5.85000    1.84     1.84   0.13615  -18.8579
 -5.80000    1.84     1.84   0.13579  -18.8583
 -5.75000    1.84     1.84   0.13503  -18.8581
 -5.70000    1.84     1.84   0.13521  -18.8581
 -5.65000    1.84     1.84   0.13521  -18.8577
 -5.60000    1.84     1.84   0.13566  -18.8573
 -5.55000    1.84     1.84   0.13521  -18.8570
 -5.50000    1.84     1.84   0.13548  -18.8576
 -5.45000    1.84     1.84   0.13534  -18.8576
 -5.40000    1.84     1.84   0.13552  -18.8576
 -5.35000    1.84     1.84   0.13543  -18.8572
 -5.30000    1.84     1.84   0.13507  -18.8569
 -5.25000    1.84     1.84   0.13453  -18.8571
 -5.20000    1.84     1.84   0.13435  -18.8568
 -5.15000    1.84     1.84   0.13390  -18.8567
 -5.10000    1.84     1.84   0.13381  -18.8567
 -5.05000    1.84     1.84   0.13368  -18.8569
 -5.00000    1.84     1.84   0.13399  -18.8562
 -4.95000    1.84     1.84   0.13412  -18.8564
 -4.90000    1.84     1.84   0.13372  -18.8564
 -4.85000    1.84     1.84   0.13363  -18.8565
 -4.80000    1.84     1.84   0.13359  -18.8564
 -4.75000    1.84     1.84   0.13376  -18.8561
 -4.70000    1.84     1.84   0.13345  -18.8560
 -4.65000    1.84     1.84   0.13246  -18.8563
 -4.60000    1.84     1.84   0.13215  -18.8565
 -4.55000    1.84     1.84   0.13318  -18.8566
 -4.50000    1.84     1.84   0.13233  -18.8569
 -4.45000    1.84     1.84   0.13192  -18.8568
 -4.40000    1.84     1.84   0.13178  -18.8567
 -4.35000    1.84     1.84   0.13219  -18.8569
 -4.30000    1.84     1.84   0.13237  -18.8566
 -4.25000    1.84     1.84   0.13196  -18.8570
 -4.20000    1.84     1.84   0.13161  -18.8574
 -4.15000    1.84     1.84   0.13206  -18.8578
 -4.10000    1.84     1.84   0.13269  -18.8573
 -4.05000    1.84     1.84   0.13241  -18.8580
 -4.00000    1.84     1.84   0.13192  -18.8578
 -3.95000    1.84     1.84   0.13187  -18.8573
 -3.90000    1.84     1.84   0.13142  -18.8570
 -3.85000    1.84     1.84   0.13134  -18.8577
 -3.80000    1.84     1.84   0.13134  -18.8575
 -3.75000    1.84     1.84   0.13129  -18.8574
 -3.70000    1.84     1.84   0.13084  -18.8574
 -3.65000    1.84     1.84   0.13057  -18.8568
 -3.60000    1.84     1.84   0.13066  -18.8575
 -3.55000    1.84     1.84   0.13030  -18.8572
 -3.50000    1.84     1.84   0.13035  -18.8578
 -3.45000    1.84     1.84   0.13030  -18.8578
 -3.40000    1.84     1.84   0.13025  -18.8573
 -3.35000    1.84     1.84   0.13030  -18.8577
 -3.30000    1.84     1.84   0.13053  -18.8575
 -3.25000    1.84     1.84   0.13012  -18.8575
 -3.20000    1.84     1.84   0.13062  -18.8585
 -3.15000    1.84     1.84   0.13039  -18.8581
 -3.10000    1.84     1.84   0.12981  -18.8579
 -3.05000    1.84     1.84   0.12999  -18.8581
 -3.00000    1.84     1.84   0.13012  -18.8581
 -2.95000    1.84     1.84   0.12962  -18.8583
 -2.90000    1.84     1.84   0.12936  -18.8583
 -2.85000    1.84     1.84   0.12949  -18.8588
 -2.80000    1.84     1.84   0.12926  -18.8584
 -2.75000    1.84     1.84   0.12837  -18.8589
 -2.70000    1.84     1.84   0.12819  -18.8587
 -2.65000    1.84     1.84   0.12863  -18.8584
 -2.60000    1.84     1.84   0.12890  -18.8585
 -2.55000    1.84     1.84   0.12882  -18.8587
 -2.50000    1.84     1.84   0.12877  -18.8585
 -2.45000    1.84     1.84   0.12823  -18.8587
 -2.40000    1.84     1.84   0.12863  -18.8583
 -2.35000    1.84     1.84   0.12832  -18.8582
 -2.30000    1.84     1.84   0.12967  -18.8569
 -2.25000    1.84     1.84   0.12972  -18.8566
 -2.20000    1.84     1.84   0.12827  -18.8566
 -2.15000    1.84     1.84   0.12958  -18.8572
 -2.10000    1.84     1.84   0.12890  -18.8569
 -2.05000    1.84     1.84   0.12863  -18.8560
 -2.00000    1.84     1.84   0.12886  -18.8570
 -1.95000    1.84     1.84   0.12810  -18.8563
 -1.90000    1.84     1.84   0.12819  -18.8567
 -1.85000    1.84     1.84   0.12783  -18.8568
 -1.80000    1.84     1.84   0.12791  -18.8567
 -1.75000    1.84     1.84   0.12751  -18.8565
 -1.70000    1.84     1.84   0.12724  -18.8568
 -1.65000    1.84     1.84   0.12711  -18.8571
 -1.60000    1.84     1.84   0.12711  -18.8564
 -1.55000    1.84     1.84   0.12724  -18.8565
 -1.50000    1.84     1.84   0.12692  -18.8568
 -1.45000    1.84     1.84   0.12670  -18.8562
 -1.40000    1.84     1.84   0.12652  -18.8565
 -1.35000    1.84     1.84   0.12648  -18.8565
 -1.30000    1.84     1.84   0.12652  -18.8563
 -1.25000    1.84     1.84   0.12598  -18.8561
 -1.20000    1.84     1.84   0.12504  -18.8559
 -1.15000    1.84     1.84   0.12602  -18.8562
 -1.10000    1.84     1.84   0.12598  -18.8557
 -1.05000    1.84     1.84   0.12504  -18.8556
 -1.00000    1.84     1.84   0.12423  -18.8541
 -0.95000    1.84     1.84   0.12225  -18.8523
 -0.90000    1.84     1.84   0.12283  -18.8536
 -0.85000    1.84     1.84   0.12229  -18.8534
 -0.80000    1.84     1.84   0.12166  -18.8546
 -0.75000    1.84     1.84   0.12130  -18.8528
 -0.70000    1.84     1.84   0.11990  -18.8522
 -0.65000    1.84     1.84   0.11743  -18.8503
 -0.60000    1.84     1.84   0.11559  -18.8479
 -0.55000    1.84     1.84   0.11437  -18.8439
 -0.50000    1.84     1.84   0.11396  -18.8393
 -0.45000    1.84     1.84   0.11441  -18.8350
 -0.40000    1.84     1.84   0.11464  -18.8298
 -0.35000    1.84     1.84   0.11536  -18.8264
 -0.30000    1.84     1.84   0.11513  -18.8230
 -0.25000    1.84     1.84   0.11500  -18.8200
 -0.20000    1.84     1.84   0.11572  -18.8166
 -0.15000    1.84     1.84   0.11622  -18.8121
 -0.10000    1.84     1.84   0.11747  -18.8056
 -0.05000    1.84     1.84   0.11932  -18.8044
 0.00000    1.84     1.84   0.12044  -18.8043
