 Field[T] Tsmpl[K] Tcntr[K] Signal   Mirror[MM]
 0.00000    1.83     1.83   0.15522  -18.7599
 0.02000    1.83     1.83   0.15492  -18.7602
 0.04000    1.83     1.83   0.15446  -18.7590
 0.06000    1.83     1.83   0.15433  -18.7582
 0.08000    1.83     1.83   0.15404  -18.7585
 0.10000    1.83     1.83   0.15381  -18.7592
 0.12000    1.83     1.83   0.15269  -18.7569
 0.14000    1.83     1.83   0.15168  -18.7551
 0.16000    1.83     1.83   0.15089  -18.7552
 0.18000    1.83     1.83   0.14933  -18.7548
 0.20000    1.83     1.83   0.14701  -18.7548
 0.22000    1.83     1.83   0.14476  -18.7563
 0.24000    1.83     1.83   0.14211  -18.7597
 0.26000    1.83     1.83   0.14162  -18.7641
 0.28000    1.83     1.83   0.14136  -18.7670
 0.30000    1.83     1.83   0.14010  -18.7691
 0.32000    1.83     1.83   0.13937  -18.7729
 0.34000    1.83     1.83   0.13934  -18.7754
 0.36000    1.83     1.83   0.13928  -18.7780
 0.38000    1.83     1.83   0.13904  -18.7806
 0.40000    1.83     1.83   0.13876  -18.7821
 0.42000    1.83     1.83   0.13900  -18.7850
 0.44000    1.83     1.83   0.13875  -18.7866
 0.46000    1.83     1.83   0.13872  -18.7898
 0.48000    1.83     1.83   0.13913  -18.7908
 0.50000    1.83     1.83   0.13910  -18.7921
 0.52000    1.83     1.83   0.13942  -18.7943
 0.54000    1.83     1.83   0.13992  -18.7968
 0.56000    1.83     1.83   0.14053  -18.7980
 0.58000    1.83     1.83   0.14073  -18.8002
 0.60000    1.83     1.83   0.14082  -18.8009
 0.62000    1.83     1.83   0.14168  -18.8023
 0.64000    1.83     1.83   0.14196  -18.8029
 0.66000    1.83     1.83   0.14252  -18.8045
 0.68000    1.83     1.83   0.14274  -18.8051
 0.70000    1.83     1.83   0.14384  -18.8061
 0.72000    1.83     1.83   0.14399  -18.8063
 0.74000    1.83     1.83   0.14419  -18.8059
 0.76000    1.83     1.83   0.14454  -18.8066
 0.78000    1.83     1.83   0.14525  -18.8066
 0.80000    1.83     1.83   0.14537  -18.8071
 0.82000    1.83     1.83   0.14570  -18.8071
 0.84000    1.83     1.83   0.14555  -18.8060
 0.86000    1.83     1.83   0.14597  -18.8066
 0.88000    1.83     1.83   0.14620  -18.8066
 0.90000    1.83     1.83   0.14667  -18.8068
 0.92000    1.83     1.83   0.14680  -18.8070
 0.94000    1.83     1.83   0.14671  -18.8066
 0.96000    1.83     1.83   0.14712  -18.8064
 0.98000    1.83     1.83   0.14740  -18.8066
 1.00000    1.83     1.83   0.14738  -18.8068
 1.02000    1.83     1.83   0.14736  -18.8071
 1.04000    1.83     1.83   0.14736  -18.8071
 1.06000    1.83     1.83   0.14796  -18.8074
 1.08000    1.83     1.83   0.14732  -18.8061
 1.10000    1.83     1.83   0.14738  -18.8054
 1.12000    1.83     1.83   0.14820  -18.8069
 1.14000    1.83     1.83   0.14802  -18.8070
 1.16000    1.83     1.83   0.14836  -18.8073
 1.18000    1.83     1.83   0.14821  -18.8071
 1.20000    1.83     1.83   0.14824  -18.8069
 1.22000    1.83     1.83   0.14837  -18.8070
 1.24000    1.83     1.83   0.14782  -18.8067
 1.26000    1.83     1.83   0.14803  -18.8065
 1.28000    1.83     1.83   0.14827  -18.8064
 1.30000    1.83     1.83   0.14837  -18.8062
 1.32000    1.83     1.83   0.14848  -18.8068
 1.34000    1.83     1.83   0.14803  -18.8067
 1.36000    1.83     1.83   0.14818  -18.8058
 1.38000    1.83     1.83   0.14835  -18.8062
 1.40000    1.83     1.83   0.14854  -18.8065
 1.42000    1.83     1.83   0.14869  -18.8059
 1.44000    1.83     1.83   0.14883  -18.8068
 1.46000    1.83     1.83   0.14882  -18.8060
 1.48000    1.83     1.83   0.14858  -18.8062
 1.50000    1.83     1.83   0.14901  -18.8069
 1.52000    1.83     1.83   0.14873  -18.8066
 1.54000    1.83     1.83   0.14885  -18.8067
 1.56000    1.83     1.83   0.14897  -18.8071
 1.58000    1.83     1.83   0.14860  -18.8052
 1.60000    1.83     1.83   0.14869  -18.8058
 1.62000    1.83     1.83   0.14920  -18.8075
 1.64000    1.83     1.83   0.14910  -18.8073
 1.66000    1.83     1.83   0.14884  -18.8070
 1.68000    1.83     1.83   0.14912  -18.8071
 1.70000    1.83     1.83   0.14854  -18.8065
 1.72000    1.83     1.83   0.14914  -18.8076
 1.74000    1.83     1.83   0.14921  -18.8069
 1.76000    1.83     1.83   0.14896  -18.8072
 1.78000    1.83     1.83   0.14906  -18.8064
 1.80000    1.83     1.83   0.14860  -18.8059
 1.82000    1.83     1.83   0.14898  -18.8063
 1.84000    1.83     1.83   0.14892  -18.8066
 1.86000    1.83     1.83   0.14884  -18.8063
 1.88000    1.83     1.83   0.14890  -18.8063
 1.90000    1.83     1.83   0.14920  -18.8059
 1.92000    1.83     1.83   0.14918  -18.8058
 1.94000    1.83     1.83   0.14910  -18.8061
 1.96000    1.83     1.83   0.14909  -18.8071
 1.98000    1.83     1.83   0.14966  -18.8070
 2.00000    1.83     1.83   0.14963  -18.8069
 2.00000    1.83     1.83   0.14915  -18.8061
 1.98000    1.83     1.83   0.14905  -18.8061
 1.96000    1.83     1.83   0.14925  -18.8067
 1.94000    1.83     1.83   0.14951  -18.8073
 1.92000    1.83     1.83   0.14909  -18.8067
 1.90000    1.83     1.83   0.14924  -18.8059
 1.88000    1.83     1.83   0.14955  -18.8066
 1.86000    1.83     1.83   0.14884  -18.8060
 1.84000    1.83     1.83   0.14888  -18.8062
 1.82000    1.83     1.83   0.14903  -18.8063
 1.80000    1.83     1.83   0.14907  -18.8056
 1.78000    1.83     1.83   0.14916  -18.8058
 1.76000    1.83     1.83   0.14874  -18.8055
 1.74000    1.83     1.83   0.14909  -18.8063
 1.72000    1.83     1.83   0.14982  -18.8073
 1.70000    1.83     1.83   0.14915  -18.8062
 1.68000    1.83     1.83   0.14960  -18.8063
 1.66000    1.83     1.83   0.14896  -18.8062
 1.64000    1.83     1.83   0.14921  -18.8066
 1.62000    1.83     1.83   0.14892  -18.8067
 1.60000    1.83     1.83   0.14890  -18.8070
 1.58000    1.83     1.83   0.14934  -18.8071
 1.56000    1.83     1.83   0.14874  -18.8052
 1.54000    1.83     1.83   0.14898  -18.8062
 1.52000    1.83     1.83   0.14839  -18.8058
 1.50000    1.83     1.83   0.14892  -18.8067
 1.48000    1.83     1.83   0.14838  -18.8055
 1.46000    1.83     1.83   0.14879  -18.8062
 1.44000    1.83     1.83   0.14854  -18.8060
 1.42000    1.83     1.83   0.14887  -18.8066
 1.40000    1.83     1.83   0.14876  -18.8070
 1.38000    1.83     1.83   0.14858  -18.8062
 1.36000    1.83     1.83   0.14858  -18.8069
 1.34000    1.83     1.83   0.14885  -18.8065
 1.32000    1.83     1.83   0.14843  -18.8062
 1.30000    1.83     1.83   0.14830  -18.8058
 1.28000    1.83     1.83   0.14854  -18.8062
 1.26000    1.83     1.83   0.14814  -18.8063
 1.24000    1.83     1.83   0.14820  -18.8057
 1.22000    1.83     1.83   0.14842  -18.8066
 1.20000    1.83     1.83   0.14784  -18.8062
 1.18000    1.83     1.83   0.14820  -18.8070
 1.16000    1.83     1.83   0.14833  -18.8071
 1.14000    1.83     1.83   0.14802  -18.8056
 1.12000    1.83     1.83   0.14812  -18.8065
 1.10000    1.83     1.83   0.14790  -18.8064
 1.08000    1.83     1.83   0.14754  -18.8062
 1.06000    1.83     1.83   0.14718  -18.8066
 1.04000    1.83     1.83   0.14738  -18.8061
 1.02000    1.83     1.83   0.14736  -18.8064
 1.00000    1.83     1.83   0.14740  -18.8068
 0.98000    1.83     1.83   0.14718  -18.8073
 0.96000    1.83     1.83   0.14720  -18.8069
 0.94000    1.83     1.83   0.14665  -18.8065
 0.92000    1.83     1.83   0.14649  -18.8063
 0.90000    1.83     1.83   0.14676  -18.8071
 0.88000    1.83     1.83   0.14637  -18.8065
 0.86000    1.83     1.83   0.14594  -18.8062
 0.84000    1.83     1.83   0.14580  -18.8061
 0.82000    1.83     1.83   0.14541  -18.8055
 0.80000    1.83     1.83   0.14513  -18.8055
 0.78000    1.83     1.83   0.14485  -18.8059
 0.76000    1.83     1.83   0.14443  -18.8054
 0.74000    1.83     1.83   0.14434  -18.8056
 0.72000    1.83     1.83   0.14361  -18.8044
 0.70000    1.83     1.83   0.14300  -18.8038
 0.68000    1.83     1.83   0.14242  -18.8037
 0.66000    1.83     1.83   0.14250  -18.8037
 0.64000    1.83     1.83   0.14177  -18.8030
 0.62000    1.83     1.83   0.14153  -18.8014
 0.60000    1.83     1.83   0.14077  -18.8006
 0.58000    1.83     1.83   0.14016  -18.7986
 0.56000    1.83     1.83   0.14000  -18.7979
 0.54000    1.83     1.83   0.13947  -18.7959
 0.52000    1.83     1.83   0.13904  -18.7948
 0.50000    1.83     1.83   0.13863  -18.7929
 0.48000    1.83     1.83   0.13874  -18.7909
 0.46000    1.83     1.83   0.13857  -18.7892
 0.44000    1.83     1.83   0.13808  -18.7864
 0.42000    1.83     1.83   0.13806  -18.7843
 0.40000    1.83     1.83   0.13820  -18.7833
 0.38000    1.83     1.83   0.13797  -18.7809
 0.36000    1.83     1.83   0.13814  -18.7773
 0.34000    1.83     1.83   0.13826  -18.7740
 0.32000    1.83     1.83   0.13873  -18.7724
 0.30000    1.83     1.83   0.13860  -18.7688
 0.28000    1.83     1.83   0.13968  -18.7648
 0.26000    1.83     1.83   0.14065  -18.7636
 0.24000    1.83     1.83   0.14077  -18.7600
 0.22000    1.83     1.83   0.14270  -18.7557
 0.20000    1.83     1.83   0.14541  -18.7542
 0.18000    1.83     1.83   0.14763  -18.7536
 0.16000    1.83     1.83   0.14911  -18.7537
 0.14000    1.83     1.83   0.15056  -18.7546
 0.12000    1.83     1.83   0.15160  -18.7565
 0.10000    1.83     1.83   0.15188  -18.7570
 0.08000    1.83     1.83   0.15244  -18.7583
 0.06000    1.83     1.83   0.15311  -18.7590
 0.04000    1.83     1.83   0.15318  -18.7586
 0.02000    1.83     1.83   0.15366  -18.7596
 -0.00000    1.83     1.83   0.15330  -18.7594
