 Field[T] Tsmpl[K] Tcntr[K] Signal
 0.00000    1.83     1.85   6.27490
 0.05000    1.83     1.85   6.27510
 0.10000    1.83     1.85   6.28280
 0.15000    1.83     1.85   6.28680
 0.20000    1.83     1.85   6.29150
 0.25000    1.83     1.85   6.29370
 0.30000    1.83     1.85   6.29640
 0.35000    1.83     1.85   6.30100
 0.40000    1.83     1.85   6.30530
 0.45000    1.83     1.85   6.30790
 0.50000    1.83     1.85   6.31070
 0.55000    1.83     1.85   6.31380
 0.60000    1.82     1.85   6.31730
 0.65000    1.82     1.85   6.31880
 0.70000    1.82     1.85   6.32040
 0.75000    1.83     1.85   6.32280
 0.80000    1.83     1.85   6.32440
 0.85000    1.83     1.85   6.32860
 0.90000    1.83     1.85   6.33150
 0.95000    1.83     1.85   6.33270
 1.00000    1.83     1.85   6.33400
 1.05000    1.83     1.85   6.33500
 1.10000    1.83     1.85   6.33570
 1.15000    1.83     1.85   6.33620
 1.20000    1.83     1.85   6.33860
 1.25000    1.83     1.85   6.33770
 1.30000    1.83     1.85   6.33990
 1.35000    1.83     1.85   6.33760
 1.40000    1.83     1.85   6.33900
 1.45000    1.83     1.85   6.33870
 1.50000    1.83     1.85   6.33800
 1.55000    1.83     1.85   6.33650
 1.60000    1.83     1.85   6.33470
 1.65000    1.83     1.85   6.33100
 1.70000    1.83     1.85   6.32590
 1.75000    1.83     1.85   6.32020
 1.80000    1.83     1.85   6.31630
 1.85000    1.83     1.85   6.31410
 1.90000    1.83     1.85   6.31320
 1.95000    1.83     1.85   6.31430
 2.00000    1.83     1.85   6.31660
 2.05000    1.83     1.85   6.31890
 2.10000    1.83     1.85   6.31970
 2.15000    1.83     1.85   6.32210
 2.20000    1.83     1.85   6.32280
 2.25000    1.83     1.85   6.32160
 2.30000    1.84     1.85   6.32080
 2.35000    1.84     1.85   6.31920
 2.40000    1.84     1.85   6.31780
 2.45000    1.84     1.85   6.31630
 2.50000    1.84     1.85   6.32070
 2.55000    1.84     1.85   6.31770
 2.60000    1.84     1.85   6.31430
 2.65000    1.84     1.86   6.31230
 2.70000    1.84     1.86   6.31240
 2.75000    1.84     1.86   6.30880
 2.80000    1.84     1.86   6.30610
 2.85000    1.84     1.86   6.29970
 2.90000    1.84     1.86   6.30000
 2.95000    1.84     1.86   6.29800
 3.00000    1.84     1.86   6.29690
 3.05000    1.84     1.86   6.29530
 3.10000    1.84     1.86   6.29830
 3.15000    1.84     1.86   6.30170
 3.20000    1.84     1.86   6.30600
 3.25000    1.84     1.86   6.31720
 3.30000    1.84     1.86   6.32820
 3.35000    1.84     1.86   6.33920
 3.40000    1.84     1.86   6.34730
 3.45000    1.85     1.86   6.35130
 3.50000    1.85     1.86   6.34760
 3.55000    1.85     1.86   6.35060
 3.60000    1.85     1.86   6.35840
 3.65000    1.85     1.86   6.36340
 3.70000    1.85     1.86   6.36590
 3.75000    1.85     1.86   6.36930
 3.80000    1.85     1.86   6.37300
 3.85000    1.85     1.86   6.37300
 3.90000    1.85     1.86   6.37790
 3.95000    1.85     1.86   6.37860
 4.00000    1.85     1.87   6.37990
 4.05000    1.85     1.87   6.38250
 4.10000    1.85     1.87   6.38240
 4.15000    1.85     1.87   6.38330
 4.20000    1.85     1.87   6.38330
 4.25000    1.85     1.87   6.38680
 4.30000    1.85     1.87   6.38770
 4.35000    1.85     1.87   6.38820
 4.40000    1.85     1.87   6.39470
 4.45000    1.85     1.87   6.39720
 4.50000    1.85     1.87   6.40320
 4.55000    1.85     1.87   6.40080
 4.60000    1.85     1.87   6.39500
 4.65000    1.85     1.87   6.39120
 4.70000    1.85     1.87   6.38810
 4.75000    1.85     1.87   6.38680
 4.80000    1.85     1.87   6.38600
 4.85000    1.85     1.87   6.38690
 4.90000    1.85     1.87   6.38470
 4.95000    1.85     1.87   6.38450
 5.00000    1.85     1.87   6.38560
 5.05000    1.85     1.87   6.38680
 5.10000    1.85     1.87   6.38790
 5.15000    1.86     1.87   6.38730
 5.20000    1.86     1.87   6.38530
 5.25000    1.86     1.88   6.38510
 5.30000    1.86     1.88   6.38500
 5.35000    1.86     1.88   6.38680
 5.40000    1.86     1.88   6.38720
 5.45000    1.86     1.88   6.38670
 5.50000    1.86     1.88   6.38540
 5.55000    1.86     1.88   6.38580
 5.60000    1.86     1.88   6.38910
 5.65000    1.86     1.88   6.38960
 5.70000    1.86     1.88   6.38740
 5.75000    1.86     1.88   6.38790
 5.80000    1.86     1.88   6.38820
 5.85000    1.86     1.88   6.38890
 5.90000    1.86     1.88   6.38630
 5.95000    1.86     1.88   6.38470
 6.00000    1.86     1.88   6.38850
 6.00000    1.86     1.88   6.39100
 5.95000    1.86     1.88   6.38860
 5.90000    1.86     1.88   6.38780
 5.85000    1.86     1.88   6.39040
 5.80000    1.86     1.88   6.39230
 5.75000    1.86     1.88   6.39090
 5.70000    1.86     1.88   6.38980
 5.65000    1.86     1.88   6.38950
 5.60000    1.86     1.88   6.39220
 5.55000    1.86     1.88   6.38920
 5.50000    1.86     1.88   6.39300
 5.45000    1.86     1.88   6.39200
 5.40000    1.85     1.88   6.38830
 5.35000    1.85     1.88   6.39340
 5.30000    1.85     1.88   6.39670
 5.25000    1.85     1.88   6.40390
 5.20000    1.85     1.87   6.39960
 5.15000    1.85     1.87   6.39250
 5.10000    1.85     1.87   6.38640
 5.05000    1.85     1.87   6.38470
 5.00000    1.85     1.87   6.38330
 4.95000    1.85     1.87   6.38090
 4.90000    1.85     1.87   6.37830
 4.85000    1.85     1.87   6.37950
 4.80000    1.85     1.87   6.38060
 4.75000    1.85     1.87   6.37730
 4.70000    1.85     1.87   6.38050
 4.65000    1.85     1.87   6.37570
 4.60000    1.85     1.87   6.37640
 4.55000    1.85     1.87   6.37680
 4.50000    1.85     1.87   6.37580
 4.45000    1.85     1.87   6.37520
 4.40000    1.85     1.87   6.37150
 4.35000    1.85     1.87   6.37310
 4.30000    1.85     1.87   6.37360
 4.25000    1.85     1.87   6.37260
 4.20000    1.84     1.87   6.37480
 4.15000    1.84     1.87   6.37290
 4.10000    1.84     1.86   6.37510
 4.05000    1.84     1.86   6.37330
 4.00000    1.84     1.86   6.37520
 3.95000    1.84     1.86   6.37210
 3.90000    1.84     1.86   6.37370
 3.85000    1.84     1.86   6.37040
 3.80000    1.84     1.86   6.36930
 3.75000    1.84     1.86   6.37030
 3.70000    1.84     1.86   6.36880
 3.65000    1.84     1.86   6.36200
 3.60000    1.84     1.86   6.36420
 3.55000    1.84     1.86   6.36360
 3.50000    1.84     1.86   6.36180
 3.45000    1.84     1.86   6.35780
 3.40000    1.84     1.86   6.35450
 3.35000    1.84     1.86   6.35390
 3.30000    1.84     1.86   6.35790
 3.25000    1.84     1.86   6.34890
 3.20000    1.84     1.86   6.33810
 3.15000    1.84     1.85   6.33050
 3.10000    1.83     1.85   6.32430
 3.05000    1.83     1.85   6.32000
 3.00000    1.83     1.85   6.32230
 2.95000    1.83     1.85   6.32150
 2.90000    1.83     1.85   6.32320
 2.85000    1.83     1.85   6.32830
 2.80000    1.83     1.85   6.33010
 2.75000    1.83     1.85   6.33160
 2.70000    1.83     1.85   6.33730
 2.65000    1.83     1.85   6.33950
 2.60000    1.83     1.85   6.34140
 2.55000    1.83     1.85   6.34310
 2.50000    1.83     1.85   6.34750
 2.45000    1.83     1.85   6.34880
 2.40000    1.83     1.85   6.35100
 2.35000    1.83     1.85   6.35440
 2.30000    1.83     1.85   6.35480
 2.25000    1.83     1.85   6.35610
 2.20000    1.83     1.85   6.35960
 2.15000    1.83     1.85   6.36030
 2.10000    1.83     1.85   6.36430
 2.05000    1.83     1.84   6.36380
 2.00000    1.82     1.84   6.36480
 1.95000    1.82     1.84   6.36500
 1.90000    1.82     1.84   6.36260
 1.85000    1.82     1.84   6.36480
 1.80000    1.82     1.84   6.36810
 1.75000    1.82     1.84   6.37670
 1.70000    1.82     1.84   6.38640
 1.65000    1.82     1.84   6.38960
 1.60000    1.82     1.84   6.39970
 1.55000    1.82     1.84   6.40580
 1.50000    1.82     1.84   6.40720
 1.45000    1.82     1.84   6.40960
 1.40000    1.82     1.84   6.41200
 1.35000    1.82     1.84   6.41540
 1.30000    1.82     1.84   6.41460
 1.25000    1.82     1.84   6.41670
 1.20000    1.82     1.84   6.41520
 1.15000    1.81     1.84   6.41890
 1.10000    1.81     1.84   6.42000
 1.05000    1.81     1.84   6.42070
 1.00000    1.81     1.84   6.42310
 0.95000    1.81     1.84   6.42250
 0.90000    1.81     1.84   6.42590
 0.85000    1.81     1.84   6.42840
 0.80000    1.81     1.84   6.42910
 0.75000    1.81     1.84   6.43520
 0.70000    1.81     1.84   6.43880
 0.65000    1.81     1.84   6.44320
 0.60000    1.81     1.84   6.44090
 0.55000    1.81     1.84   6.43650
 0.50000    1.81     1.84   6.43090
 0.45000    1.81     1.84   6.42550
 0.40000    1.81     1.84   6.42360
 0.35000    1.81     1.84   6.42190
 0.30000    1.81     1.84   6.42140
 0.25000    1.81     1.84   6.42140
 0.20000    1.81     1.84   6.41820
 0.15000    1.81     1.84   6.41560
 0.10000    1.81     1.84   6.41920
 0.05000    1.81     1.84   6.41950
-0.00000    1.81     1.84   6.41340
