 Field[T] Tsmpl[K] Tcntr[K] Signal   Mirror[MM]
 0.00000    1.82     1.82   0.72731  -10.9282
 0.05000    1.82     1.82   0.72422  -10.9276
 0.10000    1.82     1.82   0.72727  -10.9286
 0.15000    1.82     1.82   0.72730  -10.9289
 0.20000    1.82     1.82   0.72734  -10.9287
 0.25000    1.82     1.82   0.72677  -10.9287
 0.30000    1.82     1.82   0.72604  -10.9291
 0.35000    1.82     1.82   0.72575  -10.9288
 0.40000    1.82     1.82   0.72472  -10.9287
 0.45000    1.82     1.82   0.72423  -10.9287
 0.50000    1.82     1.82   0.72329  -10.9288
 0.55000    1.82     1.82   0.72192  -10.9281
 0.60000    1.82     1.82   0.72081  -10.9277
 0.65000    1.82     1.82   0.71761  -10.9275
 0.70000    1.82     1.82   0.71402  -10.9276
 0.75000    1.82     1.82   0.71065  -10.9283
 0.80000    1.82     1.82   0.70832  -10.9294
 0.85000    1.82     1.82   0.70620  -10.9304
 0.90000    1.82     1.82   0.70486  -10.9315
 0.95000    1.82     1.82   0.70430  -10.9325
 1.00000    1.82     1.82   0.70362  -10.9334
 1.05000    1.82     1.82   0.70360  -10.9339
 1.10000    1.82     1.82   0.70374  -10.9351
 1.15000    1.82     1.82   0.70448  -10.9362
 1.20000    1.82     1.82   0.70524  -10.9365
 1.25000    1.82     1.82   0.70592  -10.9371
 1.30000    1.82     1.82   0.70635  -10.9376
 1.35000    1.82     1.82   0.70733  -10.9378
 1.40000    1.82     1.82   0.70760  -10.9380
 1.45000    1.82     1.82   0.70870  -10.9382
 1.50000    1.82     1.82   0.70913  -10.9388
 1.55000    1.82     1.82   0.70962  -10.9391
 1.60000    1.82     1.82   0.70964  -10.9391
 1.65000    1.82     1.82   0.70987  -10.9392
 1.70000    1.82     1.82   0.71018  -10.9392
 1.75000    1.82     1.82   0.71006  -10.9393
 1.80000    1.82     1.82   0.71081  -10.9397
 1.85000    1.82     1.82   0.71107  -10.9398
 1.90000    1.82     1.82   0.71130  -10.9398
 1.95000    1.82     1.82   0.71133  -10.9398
 2.00000    1.82     1.82   0.71143  -10.9397
 2.05000    1.82     1.82   0.71175  -10.9401
 2.10000    1.82     1.82   0.71207  -10.9401
 2.15000    1.82     1.82   0.71200  -10.9402
 2.20000    1.82     1.82   0.71200  -10.9403
 2.25000    1.82     1.82   0.71194  -10.9401
 2.30000    1.82     1.82   0.71230  -10.9404
 2.35000    1.82     1.82   0.71234  -10.9405
 2.40000    1.82     1.82   0.71247  -10.9406
 2.45000    1.82     1.82   0.71190  -10.9405
 2.50000    1.82     1.82   0.71288  -10.9407
 2.55000    1.82     1.82   0.71243  -10.9407
 2.60000    1.82     1.82   0.71232  -10.9407
 2.65000    1.82     1.82   0.71248  -10.9407
 2.70000    1.82     1.82   0.71274  -10.9407
 2.75000    1.82     1.82   0.71323  -10.9409
 2.80000    1.82     1.82   0.71276  -10.9409
 2.85000    1.82     1.82   0.71296  -10.9410
 2.90000    1.82     1.82   0.71284  -10.9409
 2.95000    1.82     1.82   0.71298  -10.9411
 3.00000    1.82     1.82   0.71325  -10.9412
 3.05000    1.82     1.82   0.71274  -10.9411
 3.10000    1.82     1.82   0.71309  -10.9410
 3.15000    1.82     1.82   0.71331  -10.9411
 3.20000    1.82     1.82   0.71341  -10.9412
 3.25000    1.82     1.82   0.71344  -10.9411
 3.30000    1.82     1.82   0.71304  -10.9412
 3.35000    1.82     1.82   0.71328  -10.9415
 3.40000    1.82     1.82   0.71343  -10.9414
 3.45000    1.82     1.82   0.71340  -10.9412
 3.50000    1.82     1.82   0.71315  -10.9411
 3.55000    1.82     1.82   0.71345  -10.9412
 3.60000    1.82     1.82   0.71328  -10.9412
 3.65000    1.82     1.82   0.71325  -10.9413
 3.70000    1.82     1.82   0.71321  -10.9411
 3.75000    1.82     1.82   0.71295  -10.9411
 3.80000    1.82     1.82   0.71301  -10.9412
 3.85000    1.82     1.82   0.71318  -10.9414
 3.90000    1.82     1.82   0.71325  -10.9413
 3.95000    1.82     1.82   0.71320  -10.9413
 4.00000    1.82     1.82   0.71319  -10.9411
 4.00000    1.82     1.82   0.71283  -10.9411
 3.95000    1.82     1.82   0.71313  -10.9411
 3.90000    1.82     1.82   0.71323  -10.9410
 3.85000    1.82     1.82   0.71360  -10.9411
 3.80000    1.82     1.82   0.71369  -10.9411
 3.75000    1.82     1.82   0.71360  -10.9411
 3.70000    1.82     1.82   0.71398  -10.9410
 3.65000    1.82     1.82   0.71386  -10.9408
 3.60000    1.82     1.82   0.71435  -10.9409
 3.55000    1.82     1.82   0.71452  -10.9409
 3.50000    1.82     1.82   0.71454  -10.9408
 3.45000    1.82     1.82   0.71437  -10.9408
 3.40000    1.82     1.82   0.71436  -10.9409
 3.35000    1.82     1.82   0.71482  -10.9403
 3.30000    1.82     1.82   0.71455  -10.9403
 3.25000    1.82     1.82   0.71433  -10.9401
 3.20000    1.82     1.82   0.71469  -10.9402
 3.15000    1.82     1.82   0.71482  -10.9401
 3.10000    1.82     1.82   0.71467  -10.9401
 3.05000    1.82     1.82   0.71515  -10.9401
 3.00000    1.82     1.82   0.71546  -10.9399
 2.95000    1.82     1.82   0.71496  -10.9396
 2.90000    1.82     1.82   0.71551  -10.9397
 2.85000    1.82     1.82   0.71524  -10.9397
 2.80000    1.82     1.82   0.71538  -10.9394
 2.75000    1.82     1.82   0.71546  -10.9394
 2.70000    1.82     1.82   0.71527  -10.9391
 2.65000    1.82     1.82   0.71529  -10.9392
 2.60000    1.82     1.82   0.71548  -10.9390
 2.55000    1.82     1.82   0.71557  -10.9392
 2.50000    1.82     1.82   0.71564  -10.9390
 2.45000    1.82     1.82   0.71553  -10.9388
 2.40000    1.82     1.82   0.71553  -10.9387
 2.35000    1.82     1.82   0.71537  -10.9385
 2.30000    1.82     1.82   0.71528  -10.9386
 2.25000    1.82     1.82   0.71540  -10.9387
 2.20000    1.82     1.82   0.71602  -10.9385
 2.15000    1.82     1.82   0.71551  -10.9382
 2.10000    1.82     1.82   0.71553  -10.9382
 2.05000    1.82     1.82   0.71543  -10.9383
 2.00000    1.82     1.82   0.71518  -10.9378
 1.95000    1.82     1.82   0.71498  -10.9377
 1.90000    1.82     1.82   0.71456  -10.9375
 1.85000    1.82     1.82   0.71459  -10.9377
 1.80000    1.82     1.82   0.71486  -10.9375
 1.75000    1.82     1.82   0.71406  -10.9372
 1.70000    1.82     1.82   0.71372  -10.9368
 1.65000    1.82     1.82   0.71383  -10.9366
 1.60000    1.82     1.82   0.71353  -10.9366
 1.55000    1.82     1.82   0.71330  -10.9363
 1.50000    1.82     1.82   0.71273  -10.9361
 1.45000    1.82     1.82   0.71201  -10.9360
 1.40000    1.82     1.82   0.71144  -10.9357
 1.35000    1.82     1.82   0.71120  -10.9353
 1.30000    1.82     1.82   0.70996  -10.9349
 1.25000    1.82     1.82   0.70952  -10.9348
 1.20000    1.82     1.82   0.70881  -10.9342
 1.15000    1.82     1.82   0.70855  -10.9330
 1.10000    1.82     1.82   0.70741  -10.9322
 1.05000    1.82     1.82   0.70732  -10.9315
 1.00000    1.82     1.82   0.70713  -10.9308
 0.95000    1.82     1.82   0.70767  -10.9298
 0.90000    1.82     1.82   0.70842  -10.9288
 0.85000    1.82     1.82   0.70940  -10.9275
 0.80000    1.82     1.82   0.71113  -10.9266
 0.75000    1.82     1.82   0.71433  -10.9257
 0.70000    1.82     1.82   0.71719  -10.9248
 0.65000    1.82     1.82   0.72140  -10.9249
 0.60000    1.82     1.82   0.72378  -10.9254
 0.55000    1.82     1.82   0.72552  -10.9256
 0.50000    1.82     1.82   0.72680  -10.9255
 0.45000    1.82     1.82   0.72789  -10.9260
 0.40000    1.82     1.82   0.72865  -10.9261
 0.35000    1.82     1.82   0.72925  -10.9261
 0.30000    1.82     1.82   0.72955  -10.9263
 0.25000    1.82     1.82   0.73000  -10.9262
 0.20000    1.82     1.82   0.73080  -10.9257
 0.15000    1.82     1.82   0.73062  -10.9257
 0.10000    1.82     1.82   0.73102  -10.9255
 0.05000    1.82     1.82   0.73147  -10.9260
 -0.00000    1.82     1.82   0.73179  -10.9253
