 Field[T] Tsmpl[K] Tcntr[K] Signal   Mirror[MM]
 0.00000    1.83     1.83   0.18208  -10.9362
 0.05000    1.83     1.83   0.18203  -10.9362
 0.10000    1.83     1.83   0.18208  -10.9365
 0.15000    1.83     1.83   0.18212  -10.9368
 0.20000    1.83     1.83   0.18214  -10.9366
 0.25000    1.83     1.83   0.18217  -10.9370
 0.30000    1.83     1.83   0.18217  -10.9369
 0.35000    1.83     1.83   0.18221  -10.9372
 0.40000    1.83     1.83   0.18218  -10.9373
 0.45000    1.83     1.83   0.18223  -10.9373
 0.50000    1.83     1.83   0.18222  -10.9372
 0.55000    1.83     1.83   0.18225  -10.9375
 0.60000    1.83     1.83   0.18234  -10.9372
 0.65000    1.83     1.83   0.18229  -10.9371
 0.70000    1.83     1.83   0.18230  -10.9376
 0.75000    1.83     1.83   0.18230  -10.9376
 0.80000    1.83     1.83   0.18233  -10.9378
 0.85000    1.83     1.83   0.18232  -10.9377
 0.90000    1.83     1.83   0.18226  -10.9374
 0.95000    1.83     1.83   0.18232  -10.9373
 1.00000    1.83     1.83   0.18228  -10.9375
 1.05000    1.83     1.83   0.18228  -10.9375
 1.10000    1.83     1.83   0.18233  -10.9373
 1.15000    1.83     1.83   0.18237  -10.9372
 1.20000    1.83     1.83   0.18233  -10.9372
 1.25000    1.83     1.83   0.18238  -10.9373
 1.30000    1.83     1.83   0.18233  -10.9373
 1.35000    1.83     1.83   0.18228  -10.9371
 1.40000    1.83     1.83   0.18225  -10.9369
 1.45000    1.83     1.83   0.18212  -10.9368
 1.50000    1.83     1.83   0.18199  -10.9369
 1.55000    1.83     1.83   0.18174  -10.9366
 1.60000    1.83     1.83   0.18155  -10.9365
 1.65000    1.83     1.83   0.18139  -10.9366
 1.70000    1.83     1.83   0.18120  -10.9368
 1.75000    1.83     1.83   0.18103  -10.9366
 1.80000    1.83     1.83   0.18085  -10.9372
 1.85000    1.83     1.83   0.18073  -10.9368
 1.90000    1.83     1.83   0.18052  -10.9368
 1.95000    1.83     1.83   0.18043  -10.9368
 2.00000    1.83     1.83   0.18033  -10.9367
 2.05000    1.83     1.83   0.18016  -10.9369
 2.10000    1.83     1.83   0.18011  -10.9370
 2.15000    1.83     1.83   0.18007  -10.9372
 2.20000    1.83     1.83   0.17992  -10.9372
 2.25000    1.83     1.83   0.17987  -10.9372
 2.30000    1.83     1.83   0.17978  -10.9372
 2.35000    1.83     1.83   0.17978  -10.9374
 2.40000    1.83     1.83   0.17975  -10.9375
 2.45000    1.83     1.83   0.17966  -10.9374
 2.50000    1.83     1.83   0.17962  -10.9372
 2.55000    1.83     1.83   0.17970  -10.9371
 2.60000    1.83     1.83   0.17966  -10.9371
 2.65000    1.83     1.83   0.17966  -10.9372
 2.70000    1.83     1.83   0.17955  -10.9373
 2.75000    1.83     1.83   0.17961  -10.9374
 2.80000    1.83     1.83   0.17953  -10.9376
 2.85000    1.83     1.83   0.17958  -10.9376
 2.90000    1.83     1.83   0.17959  -10.9375
 2.95000    1.83     1.83   0.17957  -10.9376
 3.00000    1.83     1.83   0.17966  -10.9377
 3.05000    1.83     1.83   0.17963  -10.9378
 3.10000    1.83     1.83   0.17960  -10.9376
 3.15000    1.83     1.83   0.17959  -10.9378
 3.20000    1.83     1.83   0.17962  -10.9380
 3.25000    1.83     1.83   0.17961  -10.9380
 3.30000    1.83     1.83   0.17957  -10.9380
 3.35000    1.83     1.83   0.17954  -10.9378
 3.40000    1.83     1.83   0.17962  -10.9379
 3.45000    1.83     1.83   0.17953  -10.9380
 3.50000    1.83     1.83   0.17947  -10.9380
 3.55000    1.83     1.83   0.17950  -10.9378
 3.60000    1.83     1.83   0.17950  -10.9377
 3.65000    1.83     1.83   0.17958  -10.9380
 3.70000    1.83     1.83   0.17955  -10.9379
 3.75000    1.83     1.83   0.17953  -10.9380
 3.80000    1.83     1.83   0.17948  -10.9382
 3.85000    1.83     1.83   0.17948  -10.9379
 3.90000    1.83     1.83   0.17947  -10.9381
 3.95000    1.83     1.83   0.17943  -10.9383
 4.00000    1.83     1.83   0.17941  -10.9380
 4.00000    1.83     1.83   0.17938  -10.9379
 3.95000    1.83     1.83   0.17942  -10.9381
 3.90000    1.83     1.83   0.17945  -10.9380
 3.85000    1.83     1.83   0.17938  -10.9376
 3.80000    1.83     1.83   0.17944  -10.9377
 3.75000    1.83     1.83   0.17944  -10.9380
 3.70000    1.83     1.83   0.17948  -10.9379
 3.65000    1.83     1.83   0.17944  -10.9377
 3.60000    1.83     1.83   0.17943  -10.9376
 3.55000    1.83     1.83   0.17942  -10.9376
 3.50000    1.83     1.83   0.17942  -10.9378
 3.45000    1.83     1.83   0.17939  -10.9378
 3.40000    1.83     1.83   0.17942  -10.9377
 3.35000    1.83     1.83   0.17931  -10.9378
 3.30000    1.83     1.83   0.17937  -10.9377
 3.25000    1.83     1.83   0.17935  -10.9375
 3.20000    1.83     1.83   0.17931  -10.9376
 3.15000    1.83     1.83   0.17934  -10.9376
 3.10000    1.83     1.83   0.17934  -10.9375
 3.05000    1.83     1.83   0.17935  -10.9375
 3.00000    1.83     1.83   0.17925  -10.9374
 2.95000    1.83     1.83   0.17933  -10.9373
 2.90000    1.83     1.83   0.17931  -10.9376
 2.85000    1.83     1.83   0.17934  -10.9375
 2.80000    1.83     1.83   0.17930  -10.9373
 2.75000    1.83     1.83   0.17933  -10.9371
 2.70000    1.83     1.83   0.17928  -10.9370
 2.65000    1.83     1.83   0.17931  -10.9374
 2.60000    1.83     1.83   0.17935  -10.9369
 2.55000    1.83     1.83   0.17938  -10.9366
 2.50000    1.83     1.83   0.17945  -10.9367
 2.45000    1.83     1.83   0.17938  -10.9367
 2.40000    1.83     1.83   0.17944  -10.9365
 2.35000    1.83     1.83   0.17945  -10.9364
 2.30000    1.83     1.83   0.17951  -10.9367
 2.25000    1.83     1.83   0.17960  -10.9367
 2.20000    1.83     1.83   0.17962  -10.9364
 2.15000    1.83     1.83   0.17968  -10.9362
 2.10000    1.83     1.83   0.17976  -10.9361
 2.05000    1.83     1.83   0.17985  -10.9363
 2.00000    1.83     1.83   0.17993  -10.9360
 1.95000    1.83     1.83   0.18000  -10.9359
 1.90000    1.83     1.83   0.18009  -10.9359
 1.85000    1.83     1.83   0.18023  -10.9360
 1.80000    1.83     1.83   0.18040  -10.9359
 1.75000    1.83     1.83   0.18054  -10.9357
 1.70000    1.83     1.83   0.18075  -10.9357
 1.65000    1.83     1.83   0.18085  -10.9358
 1.60000    1.83     1.83   0.18111  -10.9357
 1.55000    1.83     1.83   0.18124  -10.9358
 1.50000    1.83     1.83   0.18147  -10.9358
 1.45000    1.83     1.83   0.18163  -10.9358
 1.40000    1.83     1.83   0.18178  -10.9360
 1.35000    1.83     1.83   0.18189  -10.9360
 1.30000    1.83     1.83   0.18195  -10.9360
 1.25000    1.83     1.83   0.18190  -10.9361
 1.20000    1.83     1.83   0.18189  -10.9365
 1.15000    1.83     1.83   0.18192  -10.9365
 1.10000    1.83     1.83   0.18194  -10.9366
 1.05000    1.83     1.83   0.18198  -10.9363
 1.00000    1.83     1.83   0.18195  -10.9362
 0.95000    1.83     1.83   0.18205  -10.9364
 0.90000    1.83     1.83   0.18204  -10.9362
 0.85000    1.83     1.83   0.18203  -10.9363
 0.80000    1.83     1.83   0.18198  -10.9363
 0.75000    1.83     1.83   0.18198  -10.9364
 0.70000    1.83     1.83   0.18205  -10.9364
 0.65000    1.83     1.83   0.18204  -10.9362
 0.60000    1.83     1.83   0.18206  -10.9360
 0.55000    1.83     1.83   0.18207  -10.9361
 0.50000    1.83     1.83   0.18217  -10.9362
 0.45000    1.83     1.83   0.18206  -10.9361
 0.40000    1.83     1.83   0.18201  -10.9360
 0.35000    1.83     1.83   0.18206  -10.9357
 0.30000    1.83     1.83   0.18206  -10.9356
 0.25000    1.83     1.83   0.18205  -10.9355
 0.20000    1.83     1.83   0.18200  -10.9356
 0.15000    1.83     1.83   0.18196  -10.9359
 0.10000    1.83     1.83   0.18201  -10.9353
 0.05000    1.83     1.83   0.18202  -10.9353
 -0.00000    1.83     1.83   0.18200  -10.9347
