 Field[T] Tsmpl[K] Tcntr[K] Signal
 0.00000    1.80     1.82   5.27800
 0.05000    1.80     1.82   5.31640
 0.10000    1.80     1.82   5.34230
 0.15000    1.80     1.82   5.37990
 0.20000    1.80     1.82   5.39500
 0.25000    1.80     1.82   5.42230
 0.30000    1.80     1.82   5.42020
 0.35000    1.80     1.82   5.44540
 0.40000    1.80     1.82   5.46300
 0.45000    1.80     1.82   5.47930
 0.50000    1.80     1.82   5.49890
 0.55000    1.80     1.82   5.50470
 0.60000    1.80     1.82   5.52230
 0.65000    1.80     1.82   5.54000
 0.70000    1.80     1.82   5.54660
 0.75000    1.80     1.82   5.56840
 0.80000    1.80     1.82   5.58610
 0.85000    1.80     1.82   5.61740
 0.90000    1.80     1.82   5.63170
 0.95000    1.80     1.82   5.64810
 1.00000    1.80     1.82   5.66340
 1.05000    1.80     1.82   5.68470
 1.10000    1.80     1.82   5.72370
 1.15000    1.80     1.82   5.73700
 1.20000    1.80     1.82   5.75520
 1.25000    1.80     1.82   5.75040
 1.30000    1.80     1.82   5.75930
 1.35000    1.80     1.82   5.73820
 1.40000    1.80     1.82   5.73060
 1.45000    1.80     1.82   5.72410
 1.50000    1.80     1.82   5.70480
 1.55000    1.80     1.82   5.69990
 1.60000    1.80     1.82   5.70220
 1.65000    1.80     1.82   5.72790
 1.70000    1.80     1.82   5.74070
 1.75000    1.80     1.82   5.75330
 1.80000    1.80     1.82   5.76240
 1.85000    1.80     1.82   5.78240
 1.90000    1.80     1.82   5.78270
 1.95000    1.80     1.82   5.79480
 2.00000    1.80     1.82   5.79970
 2.05000    1.80     1.82   5.81260
 2.10000    1.80     1.82   5.81310
 2.15000    1.80     1.82   5.80180
 2.20000    1.80     1.82   5.77770
 2.25000    1.80     1.82   5.77250
 2.30000    1.80     1.82   5.77880
 2.35000    1.81     1.82   5.77010
 2.40000    1.81     1.82   5.76200
 2.45000    1.81     1.82   5.75740
 2.50000    1.81     1.82   5.75440
 2.55000    1.81     1.82   5.75580
 2.60000    1.81     1.82   5.73870
 2.65000    1.81     1.82   5.74500
 2.70000    1.81     1.82   5.72860
 2.75000    1.81     1.82   5.72930
 2.80000    1.81     1.82   5.72090
 2.85000    1.81     1.82   5.71980
 2.90000    1.81     1.82   5.70790
 2.95000    1.81     1.83   5.70860
 3.00000    1.81     1.83   5.70080
 3.05000    1.81     1.83   5.69960
 3.10000    1.81     1.83   5.70670
 3.15000    1.81     1.83   5.69060
 3.20000    1.81     1.83   5.68120
 3.25000    1.81     1.83   5.67790
 3.30000    1.81     1.83   5.69280
 3.35000    1.81     1.83   5.69400
 3.40000    1.82     1.83   5.68660
 3.45000    1.82     1.83   5.70220
 3.50000    1.82     1.83   5.68440
 3.55000    1.82     1.83   5.69420
 3.60000    1.82     1.83   5.67650
 3.65000    1.82     1.83   5.66830
 3.70000    1.82     1.83   5.67270
 3.75000    1.82     1.83   5.68730
 3.80000    1.82     1.83   5.66740
 3.85000    1.82     1.83   5.66260
 3.90000    1.82     1.83   5.67720
 3.95000    1.82     1.83   5.67700
 4.00000    1.82     1.83   5.66670
 4.05000    1.82     1.83   5.66880
 4.10000    1.82     1.83   5.67820
 4.15000    1.82     1.84   5.66760
 4.20000    1.82     1.84   5.67560
 4.25000    1.82     1.84   5.68230
 4.30000    1.82     1.84   5.66540
 4.35000    1.82     1.84   5.65760
 4.40000    1.82     1.84   5.66000
 4.45000    1.82     1.84   5.66370
 4.50000    1.82     1.84   5.64810
 4.55000    1.82     1.84   5.65970
 4.60000    1.83     1.84   5.65420
 4.65000    1.83     1.84   5.65390
 4.70000    1.83     1.84   5.64540
 4.75000    1.83     1.84   5.64590
 4.80000    1.83     1.84   5.64660
 4.85000    1.83     1.84   5.64410
 4.90000    1.83     1.84   5.65260
 4.95000    1.83     1.84   5.66980
 5.00000    1.83     1.84   5.65620
 5.05000    1.83     1.84   5.66000
 5.10000    1.83     1.84   5.65960
 5.15000    1.83     1.85   5.65810
 5.20000    1.83     1.85   5.65480
 5.25000    1.83     1.85   5.66040
 5.30000    1.83     1.85   5.66410
 5.35000    1.83     1.85   5.66350
 5.40000    1.83     1.85   5.67460
 5.45000    1.83     1.85   5.67100
 5.50000    1.83     1.85   5.66780
 5.55000    1.83     1.85   5.68250
 5.60000    1.83     1.85   5.69060
 5.65000    1.83     1.85   5.68100
 5.70000    1.83     1.85   5.67930
 5.75000    1.83     1.85   5.65690
 5.80000    1.83     1.85   5.66340
 5.85000    1.83     1.85   5.65440
 5.90000    1.83     1.85   5.65180
 5.95000    1.83     1.85   5.67110
 6.00000    1.83     1.85   5.66310
 6.05000    1.84     1.85   5.64660
 6.10000    1.84     1.86   5.66150
 6.15000    1.84     1.86   5.65620
 6.20000    1.84     1.86   5.66160
 6.25000    1.84     1.86   5.66290
 6.30000    1.84     1.86   5.66190
 6.35000    1.84     1.86   5.66120
 6.40000    1.84     1.86   5.66080
 6.45000    1.84     1.86   5.65220
 6.50000    1.84     1.86   5.64740
 6.55000    1.84     1.86   5.64590
 6.60000    1.84     1.86   5.65260
 6.65000    1.84     1.86   5.66240
 6.70000    1.84     1.86   5.65760
 6.75000    1.84     1.86   5.67300
 6.80000    1.84     1.86   5.66160
 6.85000    1.84     1.86   5.64010
 6.90000    1.84     1.86   5.64640
 6.95000    1.84     1.86   5.65190
 7.00000    1.84     1.86   5.66170
