 Field[T] Tsmpl[K] Tcntr[K] Signal   Mirror[MM]
 0.00000    1.84     1.86   3.29700  7.6298
 0.05000    1.84     1.85   3.31050  7.6298
 0.10000    1.83     1.85   3.32352  7.6299
 0.15000    1.83     1.85   3.33229  7.6298
 0.20000    1.83     1.85   3.33662  7.6300
 0.25000    1.83     1.85   3.34416  7.6303
 0.30000    1.83     1.85   3.35027  7.6301
 0.35000    1.83     1.85   3.35784  7.6304
 0.40000    1.83     1.85   3.36545  7.6303
 0.45000    1.83     1.85   3.37392  7.6301
 0.50000    1.83     1.85   3.38010  7.6304
 0.55000    1.83     1.85   3.38567  7.6303
 0.60000    1.83     1.85   3.38609  7.6305
 0.65000    1.83     1.85   3.38794  7.6303
 0.70000    1.83     1.85   3.39161  7.6302
 0.75000    1.83     1.85   3.39708  7.6300
 0.80000    1.83     1.85   3.40195  7.6300
 0.85000    1.83     1.85   3.40751  7.6299
 0.90000    1.83     1.85   3.41191  7.6300
 0.95000    1.83     1.85   3.41442  7.6302
 1.00000    1.83     1.85   3.41344  7.6301
 1.05000    1.83     1.85   3.41700  7.6300
 1.10000    1.83     1.85   3.41780  7.6299
 1.15000    1.83     1.85   3.42164  7.6299
 1.20000    1.83     1.85   3.42556  7.6300
 1.25000    1.83     1.85   3.42926  7.6301
 1.30000    1.83     1.85   3.43081  7.6302
 1.35000    1.83     1.85   3.43001  7.6302
 1.40000    1.83     1.85   3.42827  7.6303
 1.45000    1.83     1.85   3.42954  7.6303
 1.50000    1.83     1.85   3.43053  7.6303
 1.55000    1.83     1.85   3.43261  7.6304
 1.60000    1.83     1.85   3.43408  7.6306
 1.65000    1.83     1.86   3.43569  7.6307
 1.70000    1.83     1.86   3.43719  7.6307
 1.75000    1.83     1.86   3.43500  7.6306
 1.80000    1.83     1.86   3.43344  7.6309
 1.85000    1.83     1.86   3.43563  7.6309
 1.90000    1.83     1.86   3.43309  7.6309
 1.95000    1.83     1.86   3.43317  7.6310
 2.00000    1.83     1.86   3.43199  7.6313
 2.05000    1.83     1.86   3.43219  7.6311
 2.10000    1.83     1.86   3.43040  7.6315
 2.15000    1.83     1.86   3.42934  7.6316
 2.20000    1.83     1.86   3.42888  7.6315
 2.25000    1.83     1.86   3.42802  7.6318
 2.30000    1.83     1.86   3.42980  7.6316
 2.35000    1.83     1.86   3.42754  7.6317
 2.40000    1.84     1.86   3.42589  7.6317
 2.45000    1.84     1.86   3.42113  7.6319
 2.50000    1.84     1.86   3.41710  7.6324
 2.55000    1.84     1.86   3.41627  7.6323
 2.60000    1.84     1.86   3.41382  7.6321
 2.65000    1.84     1.86   3.41191  7.6325
 2.70000    1.84     1.86   3.41071  7.6325
 2.75000    1.84     1.87   3.40955  7.6324
 2.80000    1.84     1.87   3.40665  7.6320
 2.85000    1.84     1.87   3.40507  7.6320
 2.90000    1.84     1.87   3.40038  7.6321
 2.95000    1.84     1.87   3.39324  7.6324
 3.00000    1.84     1.87   3.39177  7.6322
 3.05000    1.84     1.87   3.39126  7.6321
 3.10000    1.84     1.87   3.38998  7.6316
 3.15000    1.84     1.87   3.39275  7.6315
 3.20000    1.84     1.87   3.39314  7.6314
 3.25000    1.84     1.87   3.39232  7.6315
 3.30000    1.84     1.87   3.39157  7.6313
 3.35000    1.84     1.87   3.38885  7.6318
 3.40000    1.84     1.87   3.38687  7.6317
 3.45000    1.84     1.87   3.38328  7.6317
 3.50000    1.84     1.87   3.38324  7.6317
 3.55000    1.84     1.87   3.38176  7.6313
 3.60000    1.84     1.87   3.38029  7.6315
 3.65000    1.84     1.87   3.37615  7.6314
 3.70000    1.84     1.87   3.36993  7.6315
 3.75000    1.84     1.87   3.36979  7.6312
 3.80000    1.84     1.87   3.37059  7.6308
 3.85000    1.84     1.88   3.37005  7.6306
 3.90000    1.84     1.88   3.37234  7.6304
 3.95000    1.84     1.88   3.37323  7.6304
 4.00000    1.84     1.88   3.37375  7.6303
 4.05000    1.85     1.88   3.37243  7.6303
 4.10000    1.85     1.88   3.37375  7.6300
 4.15000    1.85     1.88   3.37415  7.6299
 4.20000    1.85     1.88   3.37467  7.6301
 4.25000    1.85     1.88   3.37589  7.6303
 4.30000    1.85     1.88   3.37712  7.6300
 4.35000    1.85     1.88   3.37939  7.6300
 4.40000    1.85     1.88   3.38281  7.6300
 4.45000    1.85     1.88   3.38323  7.6305
 4.50000    1.85     1.88   3.38358  7.6304
 4.55000    1.85     1.88   3.38624  7.6307
 4.60000    1.85     1.88   3.38649  7.6305
 4.65000    1.85     1.88   3.38773  7.6305
 4.70000    1.85     1.88   3.38911  7.6304
 4.75000    1.85     1.88   3.38948  7.6307
 4.80000    1.85     1.88   3.38555  7.6309
 4.85000    1.85     1.88   3.38255  7.6312
 4.90000    1.85     1.88   3.38265  7.6310
 4.95000    1.85     1.88   3.38207  7.6313
 5.00000    1.85     1.88   3.38196  7.6314
 5.05000    1.85     1.89   3.38393  7.6313
 5.10000    1.85     1.89   3.38486  7.6312
 5.15000    1.85     1.89   3.38157  7.6313
 5.20000    1.85     1.89   3.37909  7.6313
 5.25000    1.85     1.89   3.37870  7.6314
 5.30000    1.85     1.89   3.37630  7.6314
 5.35000    1.85     1.89   3.37483  7.6314
 5.40000    1.85     1.89   3.37435  7.6311
 5.45000    1.85     1.89   3.37402  7.6309
 5.50000    1.85     1.89   3.37424  7.6313
 5.55000    1.85     1.89   3.37275  7.6313
 5.60000    1.85     1.89   3.37049  7.6313
 5.65000    1.85     1.89   3.36942  7.6312
 5.70000    1.85     1.89   3.36872  7.6312
 5.75000    1.85     1.89   3.36891  7.6309
 5.80000    1.86     1.89   3.37202  7.6309
 5.85000    1.86     1.89   3.37281  7.6310
 5.90000    1.86     1.89   3.37439  7.6310
 5.95000    1.86     1.89   3.37496  7.6313
 6.00000    1.86     1.89   3.37484  7.6314
 6.05000    1.86     1.89   3.37433  7.6309
 6.10000    1.86     1.90   3.37271  7.6310
 6.15000    1.86     1.90   3.37350  7.6311
 6.20000    1.86     1.90   3.37358  7.6311
 6.25000    1.86     1.90   3.37355  7.6309
 6.30000    1.86     1.90   3.37335  7.6310
 6.35000    1.86     1.90   3.37151  7.6311
 6.40000    1.86     1.90   3.37195  7.6312
 6.45000    1.86     1.90   3.36883  7.6312
 6.50000    1.86     1.90   3.37022  7.6310
 6.55000    1.86     1.90   3.37105  7.6309
 6.60000    1.86     1.90   3.37080  7.6310
 6.65000    1.86     1.90   3.37050  7.6309
 6.70000    1.86     1.90   3.36880  7.6311
 6.75000    1.86     1.90   3.36850  7.6311
 6.80000    1.86     1.90   3.36766  7.6309
 6.85000    1.86     1.90   3.36858  7.6310
 6.90000    1.86     1.90   3.36757  7.6309
 6.95000    1.86     1.90   3.36662  7.6308
 7.00000    1.86     1.90   3.36748  7.6310
 7.00000    1.86     1.90   3.36763  7.6309
 6.95000    1.87     1.91   3.36399  7.6312
 6.90000    1.87     1.91   3.36443  7.6314
 6.85000    1.87     1.91   3.36267  7.6312
 6.80000    1.87     1.91   3.36350  7.6312
 6.75000    1.87     1.91   3.36520  7.6315
 6.70000    1.87     1.91   3.36461  7.6314
 6.65000    1.87     1.91   3.36748  7.6317
 6.60000    1.87     1.91   3.36713  7.6315
 6.55000    1.87     1.91   3.36753  7.6317
 6.50000    1.87     1.91   3.36721  7.6318
 6.45000    1.87     1.91   3.36795  7.6317
 6.40000    1.87     1.90   3.36938  7.6317
 6.35000    1.87     1.90   3.36990  7.6320
 6.30000    1.87     1.90   3.37055  7.6320
 6.25000    1.87     1.90   3.37041  7.6318
 6.20000    1.87     1.90   3.37107  7.6317
 6.15000    1.86     1.90   3.37032  7.6320
 6.10000    1.86     1.90   3.37021  7.6321
 6.05000    1.86     1.90   3.36790  7.6322
 6.00000    1.86     1.90   3.36921  7.6323
 5.95000    1.86     1.90   3.36994  7.6321
 5.90000    1.86     1.90   3.37004  7.6321
 5.85000    1.86     1.90   3.37099  7.6322
 5.80000    1.86     1.90   3.37122  7.6322
 5.75000    1.86     1.90   3.37087  7.6324
 5.70000    1.86     1.90   3.36977  7.6328
 5.65000    1.86     1.90   3.37117  7.6328
 5.60000    1.86     1.90   3.37506  7.6329
 5.55000    1.86     1.90   3.37548  7.6330
 5.50000    1.86     1.90   3.37793  7.6326
 5.45000    1.86     1.90   3.38065  7.6327
 5.40000    1.86     1.90   3.37963  7.6325
 5.35000    1.86     1.90   3.37995  7.6336
 5.30000    1.86     1.90   3.38209  7.6333
 5.25000    1.86     1.90   3.38465  7.6329
 5.20000    1.86     1.89   3.38643  7.6332
 5.15000    1.86     1.89   3.38712  7.6334
 5.10000    1.86     1.89   3.38655  7.6333
 5.05000    1.86     1.89   3.38668  7.6333
 5.00000    1.86     1.89   3.39105  7.6334
 4.95000    1.86     1.89   3.39284  7.6334
 4.90000    1.86     1.89   3.39482  7.6330
 4.85000    1.86     1.89   3.39636  7.6329
 4.80000    1.86     1.89   3.39807  7.6331
 4.75000    1.86     1.89   3.39893  7.6330
 4.70000    1.85     1.89   3.40120  7.6327
 4.65000    1.85     1.89   3.40040  7.6328
 4.60000    1.85     1.89   3.40030  7.6327
 4.55000    1.85     1.89   3.39928  7.6327
 4.50000    1.85     1.89   3.39623  7.6328
 4.45000    1.85     1.89   3.39438  7.6331
 4.40000    1.85     1.89   3.39173  7.6330
 4.35000    1.85     1.89   3.39140  7.6331
 4.30000    1.85     1.89   3.39197  7.6329
 4.25000    1.85     1.89   3.39040  7.6329
 4.20000    1.85     1.89   3.39033  7.6327
 4.15000    1.85     1.89   3.38929  7.6328
 4.10000    1.85     1.88   3.38733  7.6331
 4.05000    1.85     1.88   3.38947  7.6332
 4.00000    1.85     1.88   3.38859  7.6332
 3.95000    1.85     1.88   3.38864  7.6334
 3.90000    1.85     1.88   3.38848  7.6333
 3.85000    1.85     1.88   3.38849  7.6335
 3.80000    1.85     1.88   3.38913  7.6338
 3.75000    1.85     1.88   3.38787  7.6343
 3.70000    1.85     1.88   3.38880  7.6342
 3.65000    1.85     1.88   3.39189  7.6345
 3.60000    1.85     1.88   3.39507  7.6349
 3.55000    1.85     1.88   3.39946  7.6351
 3.50000    1.85     1.88   3.40083  7.6350
 3.45000    1.85     1.88   3.40236  7.6349
 3.40000    1.85     1.88   3.40595  7.6348
 3.35000    1.85     1.88   3.40652  7.6351
 3.30000    1.85     1.88   3.40889  7.6350
 3.25000    1.85     1.88   3.40872  7.6355
 3.20000    1.85     1.88   3.40905  7.6353
 3.15000    1.85     1.88   3.41023  7.6354
 3.10000    1.85     1.88   3.41229  7.6353
 3.05000    1.85     1.88   3.41495  7.6354
 3.00000    1.85     1.88   3.41522  7.6362
 2.95000    1.85     1.88   3.41851  7.6362
 2.90000    1.85     1.88   3.42140  7.6363
 2.85000    1.85     1.88   3.42523  7.6363
 2.80000    1.85     1.88   3.42751  7.6364
 2.75000    1.85     1.87   3.42978  7.6365
 2.70000    1.85     1.87   3.43123  7.6368
 2.65000    1.85     1.87   3.43405  7.6367
 2.60000    1.85     1.87   3.43320  7.6366
 2.55000    1.85     1.87   3.43373  7.6365
 2.50000    1.85     1.87   3.44002  7.6364
 2.45000    1.85     1.87   3.44472  7.6365
 2.40000    1.84     1.87   3.44566  7.6361
 2.35000    1.84     1.87   3.44573  7.6358
 2.30000    1.84     1.87   3.44656  7.6361
 2.25000    1.84     1.87   3.44635  7.6362
 2.20000    1.84     1.87   3.45079  7.6361
 2.15000    1.84     1.87   3.45514  7.6361
 2.10000    1.84     1.87   3.45542  7.6362
 2.05000    1.84     1.87   3.45723  7.6361
 2.00000    1.84     1.87   3.45987  7.6360
 1.95000    1.84     1.87   3.46140  7.6359
 1.90000    1.84     1.87   3.46188  7.6357
 1.85000    1.84     1.87   3.46416  7.6355
 1.80000    1.84     1.86   3.46515  7.6356
 1.75000    1.84     1.86   3.46694  7.6356
 1.70000    1.84     1.86   3.46701  7.6355
 1.65000    1.84     1.86   3.46804  7.6354
 1.60000    1.84     1.86   3.46941  7.6354
 1.55000    1.84     1.86   3.46560  7.6352
 1.50000    1.84     1.86   3.46142  7.6354
 1.45000    1.84     1.86   3.46162  7.6350
 1.40000    1.84     1.86   3.46291  7.6352
 1.35000    1.84     1.86   3.46627  7.6352
 1.30000    1.84     1.86   3.46556  7.6352
 1.25000    1.84     1.86   3.46495  7.6351
 1.20000    1.84     1.86   3.46458  7.6350
 1.15000    1.84     1.86   3.46351  7.6350
 1.10000    1.84     1.86   3.46330  7.6349
 1.05000    1.84     1.86   3.46289  7.6351
 1.00000    1.84     1.86   3.46468  7.6351
 0.95000    1.84     1.86   3.46490  7.6348
 0.90000    1.84     1.86   3.46473  7.6346
 0.85000    1.84     1.86   3.46237  7.6348
 0.80000    1.84     1.86   3.46003  7.6349
 0.75000    1.84     1.86   3.46060  7.6351
 0.70000    1.84     1.86   3.45916  7.6352
 0.65000    1.84     1.86   3.45970  7.6350
 0.60000    1.84     1.86   3.46087  7.6349
 0.55000    1.84     1.85   3.46102  7.6350
 0.50000    1.84     1.85   3.46236  7.6351
 0.45000    1.84     1.85   3.46195  7.6350
 0.40000    1.84     1.85   3.46373  7.6353
 0.35000    1.84     1.85   3.46315  7.6350
 0.30000    1.84     1.85   3.46129  7.6352
 0.25000    1.84     1.85   3.46280  7.6352
 0.20000    1.84     1.85   3.46451  7.6354
 0.15000    1.84     1.85   3.46410  7.6354
 0.10000    1.84     1.85   3.46351  7.6354
 0.05000    1.84     1.85   3.46423  7.6357
-0.00000    1.84     1.85   3.46686  7.6357
