 Field[T] Tsmpl[K] Tcntr[K] SignalIntensity   Mirror[MM]
 0.00000    1.85     1.85   0.60919  7.3537
 0.05000    1.85     1.85   0.60594  7.3540
 0.10000    1.85     1.85   0.60394  7.3539
 0.15000    1.85     1.85   0.60219  7.3538
 0.20000    1.85     1.85   0.60025  7.3537
 0.25000    1.85     1.85   0.59805  7.3536
 0.30000    1.85     1.85   0.59657  7.3535
 0.35000    1.85     1.85   0.59503  7.3536
 0.40000    1.85     1.85   0.59366  7.3534
 0.45000    1.85     1.85   0.59262  7.3536
 0.50000    1.85     1.85   0.59109  7.3536
 0.55000    1.85     1.85   0.59036  7.3538
 0.60000    1.85     1.85   0.58947  7.3533
 0.65000    1.85     1.85   0.58812  7.3534
 0.70000    1.85     1.85   0.58756  7.3532
 0.75000    1.85     1.85   0.58573  7.3535
 0.80000    1.85     1.85   0.58415  7.3532
 0.85000    1.85     1.85   0.58261  7.3532
 0.90000    1.85     1.85   0.58229  7.3528
 0.95000    1.85     1.85   0.58179  7.3526
 1.00000    1.85     1.85   0.58179  7.3528
 1.05000    1.85     1.85   0.58196  7.3527
 1.10000    1.85     1.85   0.58180  7.3524
 1.15000    1.85     1.85   0.58152  7.3528
 1.20000    1.85     1.85   0.58253  7.3528
 1.25000    1.85     1.85   0.58264  7.3530
 1.30000    1.85     1.85   0.58298  7.3524
 1.35000    1.85     1.85   0.58219  7.3528
 1.40000    1.85     1.85   0.58174  7.3528
 1.45000    1.85     1.85   0.58257  7.3530
 1.50000    1.85     1.85   0.58242  7.3529
 1.55000    1.85     1.85   0.58228  7.3529
 1.60000    1.85     1.85   0.58281  7.3525
 1.65000    1.85     1.85   0.58244  7.3527
 1.70000    1.85     1.85   0.58234  7.3531
 1.75000    1.85     1.85   0.58242  7.3526
 1.80000    1.85     1.85   0.58370  7.3528
 1.85000    1.85     1.85   0.58365  7.3528
 1.90000    1.85     1.85   0.58436  7.3528
 1.95000    1.85     1.85   0.58510  7.3525
 2.00000    1.85     1.85   0.58534  7.3530
 2.05000    1.85     1.85   0.58547  7.3529
 2.10000    1.85     1.85   0.58650  7.3530
 2.15000    1.85     1.85   0.58613  7.3530
 2.20000    1.85     1.85   0.58651  7.3527
 2.25000    1.85     1.85   0.58758  7.3529
 2.30000    1.85     1.85   0.58869  7.3530
 2.35000    1.85     1.85   0.58876  7.3532
 2.40000    1.85     1.85   0.58904  7.3533
 2.45000    1.85     1.85   0.58876  7.3532
 2.50000    1.85     1.85   0.58822  7.3532
 2.55000    1.85     1.85   0.58964  7.3536
 2.60000    1.85     1.85   0.58967  7.3537
 2.65000    1.85     1.85   0.58870  7.3539
 2.70000    1.85     1.85   0.58934  7.3538
 2.75000    1.85     1.85   0.58996  7.3538
 2.80000    1.85     1.85   0.59160  7.3535
 2.85000    1.85     1.85   0.59147  7.3535
 2.90000    1.85     1.85   0.59178  7.3537
 2.95000    1.85     1.85   0.59320  7.3536
 3.00000    1.85     1.85   0.59403  7.3539
 3.05000    1.85     1.85   0.59479  7.3538
 3.10000    1.85     1.85   0.59609  7.3541
 3.15000    1.85     1.85   0.59732  7.3542
 3.20000    1.85     1.85   0.59759  7.3546
 3.25000    1.85     1.85   0.59698  7.3549
 3.30000    1.85     1.85   0.59736  7.3550
 3.35000    1.85     1.85   0.59701  7.3553
 3.40000    1.85     1.85   0.59678  7.3556
 3.45000    1.85     1.85   0.59577  7.3556
 3.50000    1.85     1.85   0.59614  7.3558
 3.55000    1.85     1.85   0.59544  7.3559
 3.60000    1.85     1.85   0.59432  7.3561
 3.65000    1.85     1.85   0.59392  7.3563
 3.70000    1.85     1.85   0.59405  7.3566
 3.75000    1.85     1.85   0.59334  7.3570
 3.80000    1.85     1.85   0.59325  7.3571
 3.85000    1.85     1.85   0.59261  7.3572
 3.90000    1.85     1.85   0.59232  7.3574
 3.95000    1.85     1.85   0.59248  7.3575
 4.00000    1.85     1.85   0.59246  7.3572
 4.05000    1.85     1.85   0.59303  7.3576
 4.10000    1.85     1.85   0.59289  7.3575
 4.15000    1.85     1.85   0.59356  7.3576
 4.20000    1.85     1.85   0.59279  7.3577
 4.25000    1.85     1.85   0.59253  7.3578
 4.30000    1.85     1.85   0.59211  7.3584
 4.35000    1.85     1.85   0.59144  7.3585
 4.40000    1.85     1.85   0.59168  7.3582
 4.45000    1.85     1.85   0.59106  7.3584
 4.50000    1.85     1.85   0.59096  7.3583
 4.55000    1.85     1.85   0.59015  7.3584
 4.60000    1.85     1.85   0.58912  7.3588
 4.65000    1.85     1.85   0.58909  7.3586
 4.70000    1.85     1.85   0.58879  7.3587
 4.75000    1.85     1.85   0.58821  7.3590
 4.80000    1.85     1.85   0.58795  7.3591
 4.85000    1.85     1.85   0.58761  7.3591
 4.90000    1.85     1.85   0.58682  7.3590
 4.95000    1.85     1.85   0.58650  7.3590
 5.00000    1.85     1.85   0.58640  7.3591
 5.05000    1.85     1.85   0.58554  7.3594
 5.10000    1.85     1.85   0.58520  7.3593
 5.15000    1.85     1.85   0.58404  7.3594
 5.20000    1.85     1.85   0.58258  7.3597
 5.25000    1.85     1.85   0.58176  7.3596
 5.30000    1.85     1.85   0.58241  7.3596
 5.35000    1.85     1.85   0.58228  7.3594
 5.40000    1.85     1.85   0.58158  7.3593
 5.45000    1.85     1.85   0.58133  7.3595
 5.50000    1.85     1.85   0.58090  7.3595
 5.55000    1.85     1.85   0.57993  7.3595
 5.60000    1.85     1.85   0.57943  7.3592
 5.65000    1.85     1.85   0.57881  7.3591
 5.70000    1.85     1.85   0.57851  7.3593
 5.75000    1.85     1.85   0.57756  7.3592
 5.80000    1.85     1.85   0.57635  7.3591
 5.85000    1.85     1.85   0.57599  7.3594
 5.90000    1.85     1.85   0.57521  7.3593
 5.95000    1.85     1.85   0.57518  7.3591
 6.00000    1.85     1.85   0.57457  7.3595
 6.05000    1.85     1.85   0.57479  7.3595
 6.10000    1.85     1.85   0.57522  7.3593
 6.15000    1.85     1.85   0.57524  7.3593
 6.20000    1.85     1.85   0.57401  7.3592
 6.25000    1.85     1.85   0.57319  7.3594
 6.30000    1.85     1.85   0.57317  7.3597
 6.35000    1.85     1.85   0.57267  7.3594
 6.40000    1.85     1.85   0.57331  7.3592
 6.45000    1.85     1.85   0.57331  7.3592
 6.50000    1.85     1.85   0.57399  7.3592
 6.55000    1.85     1.85   0.57357  7.3591
 6.60000    1.85     1.85   0.57364  7.3590
 6.65000    1.85     1.85   0.57340  7.3592
 6.70000    1.85     1.85   0.57394  7.3593
 6.75000    1.85     1.85   0.57295  7.3594
 6.80000    1.85     1.85   0.57225  7.3588
 6.85000    1.85     1.85   0.57227  7.3589
 6.90000    1.85     1.85   0.57235  7.3589
 6.95000    1.85     1.85   0.57342  7.3590
 7.00000    1.85     1.85   0.57301  7.3590
