 Field[T] Tsmpl[K] Tcntr[K] Signal   Mirror[MM]
 0.00000    1.82     1.84   2.83868  7.3537
 0.05000    1.82     1.84   2.83108  7.3540
 0.10000    1.82     1.84   2.82641  7.3539
 0.15000    1.82     1.84   2.82232  7.3538
 0.20000    1.82     1.84   2.81776  7.3537
 0.25000    1.82     1.84   2.81260  7.3536
 0.30000    1.82     1.84   2.80911  7.3535
 0.35000    1.82     1.84   2.80549  7.3536
 0.40000    1.82     1.85   2.80225  7.3534
 0.45000    1.82     1.85   2.79979  7.3536
 0.50000    1.82     1.85   2.79619  7.3536
 0.55000    1.82     1.85   2.79445  7.3538
 0.60000    1.82     1.85   2.79235  7.3533
 0.65000    1.82     1.85   2.78915  7.3534
 0.70000    1.82     1.85   2.78783  7.3532
 0.75000    1.82     1.85   2.78347  7.3535
 0.80000    1.82     1.85   2.77971  7.3532
 0.85000    1.82     1.85   2.77605  7.3532
 0.90000    1.82     1.85   2.77530  7.3528
 0.95000    1.83     1.85   2.77409  7.3526
 1.00000    1.83     1.85   2.77410  7.3528
 1.05000    1.83     1.85   2.77450  7.3527
 1.10000    1.83     1.85   2.77413  7.3524
 1.15000    1.83     1.85   2.77345  7.3528
 1.20000    1.83     1.85   2.77587  7.3528
 1.25000    1.83     1.85   2.77612  7.3530
 1.30000    1.83     1.85   2.77694  7.3524
 1.35000    1.83     1.85   2.77506  7.3528
 1.40000    1.83     1.85   2.77397  7.3528
 1.45000    1.83     1.85   2.77596  7.3530
 1.50000    1.83     1.85   2.77560  7.3529
 1.55000    1.83     1.85   2.77526  7.3529
 1.60000    1.83     1.85   2.77652  7.3525
 1.65000    1.83     1.85   2.77566  7.3527
 1.70000    1.83     1.85   2.77541  7.3531
 1.75000    1.83     1.85   2.77560  7.3526
 1.80000    1.83     1.85   2.77866  7.3528
 1.85000    1.83     1.85   2.77852  7.3528
 1.90000    1.83     1.85   2.78022  7.3528
 1.95000    1.83     1.85   2.78197  7.3525
 2.00000    1.83     1.85   2.78254  7.3530
 2.05000    1.83     1.85   2.78285  7.3529
 2.10000    1.83     1.85   2.78531  7.3530
 2.15000    1.83     1.86   2.78442  7.3530
 2.20000    1.83     1.86   2.78532  7.3527
 2.25000    1.83     1.86   2.78787  7.3529
 2.30000    1.83     1.86   2.79050  7.3530
 2.35000    1.83     1.86   2.79067  7.3532
 2.40000    1.83     1.86   2.79133  7.3533
 2.45000    1.83     1.86   2.79066  7.3532
 2.50000    1.83     1.86   2.78940  7.3532
 2.55000    1.83     1.86   2.79275  7.3536
 2.60000    1.83     1.86   2.79283  7.3537
 2.65000    1.83     1.86   2.79053  7.3539
 2.70000    1.83     1.86   2.79204  7.3538
 2.75000    1.83     1.86   2.79352  7.3538
 2.80000    1.83     1.86   2.79740  7.3535
 2.85000    1.83     1.86   2.79708  7.3535
 2.90000    1.83     1.86   2.79781  7.3537
 2.95000    1.83     1.86   2.80116  7.3536
 3.00000    1.83     1.86   2.80313  7.3539
 3.05000    1.83     1.86   2.80492  7.3538
 3.10000    1.83     1.86   2.80799  7.3541
 3.15000    1.83     1.86   2.81089  7.3542
 3.20000    1.83     1.87   2.81152  7.3546
 3.25000    1.83     1.87   2.81009  7.3549
 3.30000    1.83     1.87   2.81097  7.3550
 3.35000    1.83     1.87   2.81015  7.3553
 3.40000    1.83     1.87   2.80961  7.3556
 3.45000    1.84     1.87   2.80724  7.3556
 3.50000    1.84     1.87   2.80811  7.3558
 3.55000    1.84     1.87   2.80646  7.3559
 3.60000    1.84     1.87   2.80381  7.3561
 3.65000    1.84     1.87   2.80286  7.3563
 3.70000    1.84     1.87   2.80318  7.3566
 3.75000    1.84     1.87   2.80151  7.3570
 3.80000    1.84     1.87   2.80128  7.3571
 3.85000    1.84     1.87   2.79977  7.3572
 3.90000    1.84     1.87   2.79910  7.3574
 3.95000    1.84     1.87   2.79948  7.3575
 4.00000    1.84     1.87   2.79943  7.3572
 4.05000    1.84     1.87   2.80078  7.3576
 4.10000    1.84     1.87   2.80043  7.3575
 4.15000    1.84     1.88   2.80202  7.3576
 4.20000    1.84     1.88   2.80021  7.3577
 4.25000    1.84     1.88   2.79958  7.3578
 4.30000    1.84     1.88   2.79859  7.3584
 4.35000    1.84     1.88   2.79701  7.3585
 4.40000    1.84     1.88   2.79757  7.3582
 4.45000    1.84     1.88   2.79611  7.3584
 4.50000    1.84     1.88   2.79588  7.3583
 4.55000    1.84     1.88   2.79395  7.3584
 4.60000    1.84     1.88   2.79152  7.3588
 4.65000    1.84     1.88   2.79146  7.3586
 4.70000    1.84     1.88   2.79074  7.3587
 4.75000    1.84     1.88   2.78937  7.3590
 4.80000    1.84     1.88   2.78876  7.3591
 4.85000    1.84     1.88   2.78795  7.3591
 4.90000    1.85     1.88   2.78606  7.3590
 4.95000    1.85     1.88   2.78531  7.3590
 5.00000    1.85     1.88   2.78506  7.3591
 5.05000    1.85     1.88   2.78302  7.3594
 5.10000    1.85     1.88   2.78223  7.3593
 5.15000    1.85     1.89   2.77945  7.3594
 5.20000    1.85     1.89   2.77598  7.3597
 5.25000    1.85     1.89   2.77404  7.3596
 5.30000    1.85     1.89   2.77559  7.3596
 5.35000    1.85     1.89   2.77528  7.3594
 5.40000    1.85     1.89   2.77359  7.3593
 5.45000    1.85     1.89   2.77301  7.3595
 5.50000    1.85     1.89   2.77198  7.3595
 5.55000    1.85     1.89   2.76967  7.3595
 5.60000    1.85     1.89   2.76847  7.3592
 5.65000    1.85     1.89   2.76698  7.3591
 5.70000    1.85     1.89   2.76626  7.3593
 5.75000    1.85     1.89   2.76399  7.3592
 5.80000    1.85     1.89   2.76109  7.3591
 5.85000    1.85     1.89   2.76023  7.3594
 5.90000    1.85     1.89   2.75838  7.3593
 5.95000    1.85     1.89   2.75830  7.3591
 6.00000    1.85     1.89   2.75683  7.3595
 6.05000    1.85     1.89   2.75735  7.3595
 6.10000    1.85     1.89   2.75840  7.3593
 6.15000    1.86     1.90   2.75843  7.3593
 6.20000    1.86     1.90   2.75549  7.3592
 6.25000    1.86     1.90   2.75353  7.3594
 6.30000    1.86     1.90   2.75347  7.3597
 6.35000    1.86     1.90   2.75228  7.3594
 6.40000    1.86     1.90   2.75382  7.3592
 6.45000    1.86     1.90   2.75380  7.3592
 6.50000    1.86     1.90   2.75545  7.3592
 6.55000    1.86     1.90   2.75443  7.3591
 6.60000    1.86     1.90   2.75460  7.3590
 6.65000    1.86     1.90   2.75402  7.3592
 6.70000    1.86     1.90   2.75531  7.3593
 6.75000    1.86     1.90   2.75295  7.3594
 6.80000    1.86     1.90   2.75127  7.3588
 6.85000    1.86     1.90   2.75131  7.3589
 6.90000    1.86     1.90   2.75150  7.3589
 6.95000    1.86     1.90   2.75408  7.3590
 7.00000    1.86     1.90   2.75309  7.3590
