 Field[T] Tsmpl[K] Tcntr[K] Signal
 7.00000    1.86     1.90   3.90010
 6.95000    1.86     1.90   3.91330
 6.90000    1.86     1.89   3.90340
 6.85000    1.85     1.89   3.91890
 6.80000    1.85     1.89   3.90610
 6.75000    1.85     1.89   3.90610
 6.70000    1.85     1.89   3.91530
 6.65000    1.85     1.89   3.92900
 6.60000    1.85     1.89   3.93460
 6.55000    1.85     1.89   3.93220
 6.50000    1.85     1.89   3.94080
 6.45000    1.85     1.89   3.93600
 6.40000    1.85     1.89   3.93350
 6.35000    1.85     1.89   3.93140
 6.30000    1.85     1.89   3.93270
 6.25000    1.85     1.89   3.93410
 6.20000    1.85     1.89   3.93070
 6.15000    1.85     1.89   3.93870
 6.10000    1.85     1.89   3.94820
 6.05000    1.85     1.89   3.94290
 6.00000    1.85     1.89   3.94760
 5.95000    1.85     1.88   3.95560
 5.90000    1.85     1.88   3.95000
 5.85000    1.85     1.88   3.93110
 5.80000    1.85     1.88   3.93030
 5.75000    1.84     1.88   3.94440
 5.70000    1.84     1.88   3.94210
 5.65000    1.84     1.88   3.93750
 5.60000    1.84     1.88   3.93760
 5.55000    1.84     1.88   3.94850
 5.50000    1.84     1.88   3.94800
 5.45000    1.84     1.88   3.94160
 5.40000    1.84     1.88   3.92810
 5.35000    1.84     1.88   3.92480
 5.30000    1.84     1.88   3.93230
 5.25000    1.84     1.88   3.92950
 5.20000    1.84     1.88   3.93030
 5.15000    1.84     1.88   3.92960
 5.10000    1.84     1.88   3.92130
 5.05000    1.84     1.88   3.92250
 5.00000    1.84     1.88   3.91540
 4.95000    1.84     1.88   3.90640
 4.90000    1.84     1.87   3.88910
 4.85000    1.84     1.87   3.89010
 4.80000    1.84     1.87   3.89370
 4.75000    1.84     1.87   3.88490
 4.70000    1.84     1.87   3.87190
 4.65000    1.84     1.87   3.86880
 4.60000    1.84     1.87   3.86680
 4.55000    1.84     1.87   3.85250
 4.50000    1.84     1.87   3.83560
 4.45000    1.84     1.87   3.83070
 4.40000    1.84     1.87   3.82230
 4.35000    1.84     1.87   3.78200
 4.30000    1.84     1.87   3.77340
 4.25000    1.84     1.87   3.76600
 4.20000    1.84     1.87   3.75060
 4.15000    1.84     0.00   3.72680
 4.10000    1.84     1.87   3.71310
 4.05000    1.83     1.87   3.68290
 4.00000    1.83     1.87   3.65410
 3.95000    1.83     1.86   3.62230
 3.90000    1.83     1.86   3.60590
 3.85000    1.83     1.86   3.56530
 3.80000    1.83     1.86   3.53970
 3.75000    1.83     1.86   3.51130
 3.70000    1.83     1.86   3.47040
 3.65000    1.83     1.86   3.43960
 3.60000    1.83     1.86   3.40400
 3.55000    1.83     1.86   3.36440
 3.50000    1.83     1.86   3.32530
 3.45000    1.83     1.86   3.27830
 3.40000    1.83     1.86   3.21950
 3.35000    1.83     1.86   3.18970
 3.30000    1.83     1.86   3.14420
 3.25000    1.83     1.86   3.09930
 3.20000    1.83     1.86   3.05870
 3.15000    1.83     1.86   3.02280
 3.10000    1.83     1.86   2.98200
 3.05000    1.83     1.86   2.93850
 3.00000    1.83     1.86   2.89910
 2.95000    1.83     1.85   2.87360
 2.90000    1.83     1.85   2.82970
 2.85000    1.83     1.85   2.79320
 2.80000    1.83     1.85   2.77150
 2.75000    1.83     1.85   2.74620
 2.70000    1.83     1.85   2.72930
 2.65000    1.83     1.85   2.71790
 2.60000    1.83     1.85   2.71610
 2.55000    1.83     1.85   2.69260
 2.50000    1.83     1.85   2.69980
 2.45000    1.83     1.85   2.71150
 2.40000    1.83     1.85   2.74020
 2.35000    1.83     1.85   2.77210
 2.30000    1.83     1.85   2.81210
 2.25000    1.83     1.85   2.85670
 2.20000    1.83     1.85   2.91890
 2.15000    1.83     1.85   2.97710
 2.10000    1.83     1.85   3.04380
 2.05000    1.83     1.85   3.08760
 2.00000    1.82     1.85   3.17640
 1.95000    1.82     1.85   3.23140
 1.90000    1.82     1.85   3.32870
 1.85000    1.82     1.84   3.43200
 1.80000    1.82     1.84   3.52140
 1.75000    1.82     1.84   3.63360
 1.70000    1.82     1.84   3.75700
 1.65000    1.82     1.84   3.85700
 1.60000    1.82     1.84   3.95930
 1.55000    1.82     1.84   4.03030
 1.50000    1.82     1.84   4.08790
 1.45000    1.82     1.84   4.11650
 1.40000    1.82     1.84   4.13880
 1.35000    1.82     1.84   4.16610
 1.30000    1.82     1.84   4.19960
 1.25000    1.82     1.84   4.26180
 1.20000    1.82     1.84   4.30250
 1.15000    1.82     1.84   4.34220
 1.10000    1.82     1.84   4.32310
 1.05000    1.82     1.84   4.35710
 1.00000    1.82     1.84   4.35770
 0.95000    1.82     1.84   4.34860
 0.90000    1.82     1.84   4.33700
 0.85000    1.82     1.84   4.32080
 0.80000    1.82     1.84   4.30660
 0.75000    1.82     1.84   4.30760
 0.70000    1.82     1.84   4.29600
 0.65000    1.82     1.84   4.29360
 0.60000    1.82     1.84   4.28220
 0.55000    1.82     1.84   4.29900
 0.50000    1.82     1.84   4.29870
 0.45000    1.82     1.84   4.30400
 0.40000    1.82     1.84   4.30200
 0.35000    1.82     1.84   4.30800
 0.30000    1.82     1.84   4.31620
 0.25000    1.82     1.84   4.31620
 0.20000    1.82     1.83   4.31710
 0.15000    1.82     1.83   4.31610
 0.10000    1.82     1.83   4.30420
 0.05000    1.82     1.83   4.31510
-0.00000    1.82     1.83   4.31860
